"","task","id","group","session","trial","condition","trialxcondition","RT","ACC","liking"
"1","pav",100,"control","second",1,"CSminus",1,0.3342723,1,97.3684236364266
"2","pav",100,"control","second",2,"CSplus",1,0.4199233,1,61.1842127162396
"3","pav",100,"control","second",3,"CSminus",2,0.2910164,1,97.3684236364266
"4","pav",100,"control","second",4,"CSplus",2,0.3646661,1,61.1842127162396
"5","pav",100,"control","second",5,"CSplus",3,0.4597159,1,61.1842127162396
"6","pav",100,"control","second",6,"CSminus",3,0.3056092,1,97.3684236364266
"7","pav",100,"control","second",7,"CSplus",4,0.4978054,1,61.1842127162396
"8","pav",100,"control","second",8,"CSminus",4,0.2420313,1,97.3684236364266
"9","pav",100,"control","second",9,"CSminus",5,0.2920713,1,97.3684236364266
"10","pav",100,"control","second",10,"CSplus",5,0.281965,1,61.1842127162396
"11","pav",100,"control","second",11,"CSminus",6,0.3879149,1,97.3684236364266
"12","pav",100,"control","second",12,"CSplus",6,0.5057978,1,61.1842127162396
"13","pav",100,"control","second",13,"CSplus",7,0.5084935,1,61.1842127162396
"14","pav",100,"control","second",14,"CSminus",7,0.5533945,1,97.3684236364266
"15","pav",100,"control","second",15,"CSplus",8,0.3515404,1,61.1842127162396
"16","pav",100,"control","second",16,"CSminus",8,0.2834894,1,97.3684236364266
"17","pav",100,"control","second",17,"CSminus",9,0.366843,1,97.3684236364266
"18","pav",100,"control","second",18,"CSplus",9,0.4654166,1,61.1842127162396
"19","pav",100,"control","second",19,"CSminus",10,0.2628457,1,97.3684236364266
"20","pav",100,"control","second",20,"CSplus",10,0.446262,1,61.1842127162396
"21","pav",100,"control","second",21,"CSminus",11,0.4181785,1,97.3684236364266
"22","pav",100,"control","second",22,"CSplus",11,0.451209,1,61.1842127162396
"23","pav",100,"control","second",23,"CSminus",12,0.2560897,1,97.3684236364266
"24","pav",100,"control","second",24,"CSplus",12,0.358109,1,61.1842127162396
"25","pav",100,"control","second",25,"CSminus",13,0.2875506,1,97.3684236364266
"26","pav",100,"control","second",26,"CSplus",13,0.3627148,1,61.1842127162396
"27","pav",100,"control","second",27,"CSminus",14,0.3724946,1,97.3684236364266
"28","pav",100,"control","second",28,"CSplus",14,0.3990213,1,61.1842127162396
"29","pav",100,"control","second",29,"CSplus",15,0.3121949,1,61.1842127162396
"30","pav",100,"control","second",30,"CSminus",15,0.3650542,1,97.3684236364266
"31","pav",100,"control","second",31,"CSplus",16,0.3630034,1,61.1842127162396
"32","pav",100,"control","second",32,"CSminus",16,0.371204,1,97.3684236364266
"33","pav",100,"control","second",33,"CSplus",17,0.9943268,1,61.1842127162396
"34","pav",100,"control","second",34,"CSminus",17,0.3122571,1,97.3684236364266
"35","pav",100,"control","second",35,"CSminus",18,0.2481342,1,97.3684236364266
"36","pav",100,"control","second",36,"CSplus",18,0.2857651,1,61.1842127162396
"37","pav",100,"control","second",37,"CSplus",19,0.5315983,1,61.1842127162396
"38","pav",100,"control","second",38,"CSminus",19,0.2609713,1,97.3684236364266
"39","pav",100,"control","second",39,"CSplus",20,0.3377728,1,61.1842127162396
"40","pav",100,"control","second",40,"CSminus",20,0.2724539,1,97.3684236364266
"41","pav",102,"control","second",1,"CSplus",1,0.4529798,1,82.2368475721954
"42","pav",102,"control","second",2,"CSminus",1,0.5851755,1,81.2500004490132
"43","pav",102,"control","second",3,"CSplus",2,0.3871594,1,82.2368475721954
"44","pav",102,"control","second",4,"CSminus",2,0.4472258,1,81.2500004490132
"45","pav",102,"control","second",5,"CSminus",3,0.4511677,1,81.2500004490132
"46","pav",102,"control","second",6,"CSplus",3,0.4786419,1,82.2368475721954
"47","pav",102,"control","second",7,"CSminus",4,0.3891011,1,81.2500004490132
"48","pav",102,"control","second",8,"CSplus",4,0.3907202,1,82.2368475721954
"49","pav",102,"control","second",9,"CSplus",5,0.4301316,1,82.2368475721954
"50","pav",102,"control","second",10,"CSminus",5,0.5283444,1,81.2500004490132
"51","pav",102,"control","second",11,"CSminus",6,0.4892778,1,81.2500004490132
"52","pav",102,"control","second",12,"CSplus",6,0.426065,1,82.2368475721954
"53","pav",102,"control","second",13,"CSplus",7,0.503777,1,82.2368475721954
"54","pav",102,"control","second",14,"CSminus",7,0.4610297,1,81.2500004490132
"55","pav",102,"control","second",15,"CSplus",8,0.4701434,1,82.2368475721954
"56","pav",102,"control","second",16,"CSminus",8,0.5255043,1,81.2500004490132
"57","pav",102,"control","second",17,"CSplus",9,0.4573585,1,82.2368475721954
"58","pav",102,"control","second",18,"CSminus",9,0.769044,1,81.2500004490132
"59","pav",102,"control","second",19,"CSplus",10,0.4410116,1,82.2368475721954
"60","pav",102,"control","second",20,"CSminus",10,0.854895,1,81.2500004490132
"61","pav",102,"control","second",21,"CSplus",11,0.4443581,1,82.2368475721954
"62","pav",102,"control","second",22,"CSminus",11,0.9673324,1,81.2500004490132
"63","pav",102,"control","second",23,"CSplus",12,0.6012903,1,82.2368475721954
"64","pav",102,"control","second",24,"CSminus",12,0.6298351,1,81.2500004490132
"65","pav",102,"control","second",25,"CSplus",13,0.6287295,1,82.2368475721954
"66","pav",102,"control","second",26,"CSminus",13,0.7714367,1,81.2500004490132
"67","pav",102,"control","second",27,"CSminus",14,0.6384468,1,81.2500004490132
"68","pav",102,"control","second",28,"CSplus",14,0.6313653,1,82.2368475721954
"69","pav",102,"control","second",29,"CSplus",15,0.6026293,1,82.2368475721954
"70","pav",102,"control","second",30,"CSminus",15,0.8857222,1,81.2500004490132
"71","pav",102,"control","second",31,"CSminus",16,0.6349082,1,81.2500004490132
"72","pav",102,"control","second",32,"CSplus",16,0.5372448,1,82.2368475721954
"73","pav",102,"control","second",33,"CSplus",17,0.6944672,1,82.2368475721954
"74","pav",102,"control","second",34,"CSminus",17,0.8793989,1,81.2500004490132
"75","pav",102,"control","second",35,"CSminus",18,0.5643909,1,81.2500004490132
"76","pav",102,"control","second",36,"CSplus",18,0.6362597,1,82.2368475721954
"77","pav",102,"control","second",37,"CSminus",19,0.8445757,1,81.2500004490132
"78","pav",102,"control","second",38,"CSplus",19,0.5570903,1,82.2368475721954
"79","pav",102,"control","second",39,"CSminus",20,0.6853378,1,81.2500004490132
"80","pav",102,"control","second",40,"CSplus",20,0.4990641,1,82.2368475721954
"81","pav",105,"control","second",1,"CSplus",1,0.5813469,1,55.2631539245152
"82","pav",105,"control","second",2,"CSminus",1,0.603148,1,61.5131537748441
"83","pav",105,"control","second",3,"CSminus",2,0.4441615,1,61.5131537748441
"84","pav",105,"control","second",4,"CSplus",2,0.516413,1,55.2631539245152
"85","pav",105,"control","second",5,"CSminus",3,0.6884604,1,61.5131537748441
"86","pav",105,"control","second",6,"CSplus",3,0.5131912,1,55.2631539245152
"87","pav",105,"control","second",7,"CSplus",4,0.4348005,1,55.2631539245152
"88","pav",105,"control","second",8,"CSminus",4,0.4967144,1,61.5131537748441
"89","pav",105,"control","second",9,"CSplus",5,0,0,55.2631539245152
"90","pav",105,"control","second",10,"CSminus",5,0.4330217,1,61.5131537748441
"91","pav",105,"control","second",11,"CSplus",6,0.4558353,1,55.2631539245152
"92","pav",105,"control","second",12,"CSminus",6,0.6236006,1,61.5131537748441
"93","pav",105,"control","second",13,"CSminus",7,0.7476124,1,61.5131537748441
"94","pav",105,"control","second",14,"CSplus",7,0.4596736,1,55.2631539245152
"95","pav",105,"control","second",15,"CSplus",8,0.4723705,1,55.2631539245152
"96","pav",105,"control","second",16,"CSminus",8,0.5211926,1,61.5131537748441
"97","pav",105,"control","second",17,"CSplus",9,0.3969412,1,55.2631539245152
"98","pav",105,"control","second",18,"CSminus",9,0.797915,1,61.5131537748441
"99","pav",105,"control","second",19,"CSplus",10,0.3418193,1,55.2631539245152
"100","pav",105,"control","second",20,"CSminus",10,0.4519384,1,61.5131537748441
"101","pav",105,"control","second",21,"CSplus",11,0.3184411,1,55.2631539245152
"102","pav",105,"control","second",22,"CSminus",11,0.6997776,1,61.5131537748441
"103","pav",105,"control","second",23,"CSminus",12,0.8833683,1,61.5131537748441
"104","pav",105,"control","second",24,"CSplus",12,0.4464997,1,55.2631539245152
"105","pav",105,"control","second",25,"CSminus",13,0.7766676,1,61.5131537748441
"106","pav",105,"control","second",26,"CSplus",13,0.5522321,1,55.2631539245152
"107","pav",105,"control","second",27,"CSplus",14,0,0,55.2631539245152
"108","pav",105,"control","second",28,"CSminus",14,0.3947381,1,61.5131537748441
"109","pav",105,"control","second",29,"CSminus",15,0.7211617,1,61.5131537748441
"110","pav",105,"control","second",30,"CSplus",15,0,0,55.2631539245152
"111","pav",105,"control","second",31,"CSplus",16,0.7785541,1,55.2631539245152
"112","pav",105,"control","second",32,"CSminus",16,0.5057688,1,61.5131537748441
"113","pav",105,"control","second",33,"CSminus",17,0.5537556,1,61.5131537748441
"114","pav",105,"control","second",34,"CSplus",17,0.8431763,1,55.2631539245152
"115","pav",105,"control","second",35,"CSplus",18,0.4101141,1,55.2631539245152
"116","pav",105,"control","second",36,"CSminus",18,0.4291386,1,61.5131537748441
"117","pav",105,"control","second",37,"CSminus",19,0.6216797,1,61.5131537748441
"118","pav",105,"control","second",38,"CSplus",19,0.684601,1,55.2631539245152
"119","pav",105,"control","second",39,"CSminus",20,0.848268,1,61.5131537748441
"120","pav",105,"control","second",40,"CSplus",20,0.685765,1,55.2631539245152
"121","pav",106,"control","second",1,"CSplus",1,0.5067776,1,50.0000011973684
"122","pav",106,"control","second",2,"CSminus",1,0.529678,1,50.0000011973684
"123","pav",106,"control","second",3,"CSplus",2,0.7699043,1,50.0000011973684
"124","pav",106,"control","second",4,"CSminus",2,0.677015,1,50.0000011973684
"125","pav",106,"control","second",5,"CSminus",3,0.5473664,1,50.0000011973684
"126","pav",106,"control","second",6,"CSplus",3,0.4983991,1,50.0000011973684
"127","pav",106,"control","second",7,"CSminus",4,0.3950654,1,50.0000011973684
"128","pav",106,"control","second",8,"CSplus",4,0.7534966,1,50.0000011973684
"129","pav",106,"control","second",9,"CSplus",5,0.5221831,1,50.0000011973684
"130","pav",106,"control","second",10,"CSminus",5,0.6113689,1,50.0000011973684
"131","pav",106,"control","second",11,"CSplus",6,0.6519946,1,50.0000011973684
"132","pav",106,"control","second",12,"CSminus",6,0.9111837,1,50.0000011973684
"133","pav",106,"control","second",13,"CSplus",7,0.5195264,1,50.0000011973684
"134","pav",106,"control","second",14,"CSminus",7,0.484179,1,50.0000011973684
"135","pav",106,"control","second",15,"CSminus",8,0.6141599,1,50.0000011973684
"136","pav",106,"control","second",16,"CSplus",8,0.8075315,1,50.0000011973684
"137","pav",106,"control","second",17,"CSplus",9,0.6540608,1,50.0000011973684
"138","pav",106,"control","second",18,"CSminus",9,0.6018347,1,50.0000011973684
"139","pav",106,"control","second",19,"CSminus",10,0.3364013,1,50.0000011973684
"140","pav",106,"control","second",20,"CSplus",10,0.5277103,1,50.0000011973684
"141","pav",106,"control","second",21,"CSminus",11,0.8535995,1,50.0000011973684
"142","pav",106,"control","second",22,"CSplus",11,0.9720311,1,50.0000011973684
"143","pav",106,"control","second",23,"CSminus",12,0,0,50.0000011973684
"144","pav",106,"control","second",24,"CSplus",12,0.5186325,1,50.0000011973684
"145","pav",106,"control","second",25,"CSplus",13,0.7889261,1,50.0000011973684
"146","pav",106,"control","second",26,"CSminus",13,0.8096115,1,50.0000011973684
"147","pav",106,"control","second",27,"CSminus",14,0.9852944,1,50.0000011973684
"148","pav",106,"control","second",28,"CSplus",14,0,0,50.0000011973684
"149","pav",106,"control","second",29,"CSplus",15,0,0,50.0000011973684
"150","pav",106,"control","second",30,"CSminus",15,0.5979631,1,50.0000011973684
"151","pav",106,"control","second",31,"CSminus",16,0.8769467,1,50.0000011973684
"152","pav",106,"control","second",32,"CSplus",16,0.791439,1,50.0000011973684
"153","pav",106,"control","second",33,"CSminus",17,0,0,50.0000011973684
"154","pav",106,"control","second",34,"CSplus",17,0,0,50.0000011973684
"155","pav",106,"control","second",35,"CSplus",18,0.7205457,1,50.0000011973684
"156","pav",106,"control","second",36,"CSminus",18,0,0,50.0000011973684
"157","pav",106,"control","second",37,"CSplus",19,0,0,50.0000011973684
"158","pav",106,"control","second",38,"CSminus",19,0.4641611,1,50.0000011973684
"159","pav",106,"control","second",39,"CSminus",20,0.4867192,1,50.0000011973684
"160","pav",106,"control","second",40,"CSplus",20,0.5329886,1,50.0000011973684
"161","pav",107,"control","second",1,"CSminus",1,0.5577846,1,74.0131654491864
"162","pav",107,"control","second",2,"CSplus",1,0.5656744,1,55.2631539245152
"163","pav",107,"control","second",3,"CSplus",2,0.8308454,1,55.2631539245152
"164","pav",107,"control","second",4,"CSminus",2,0.5321176,1,74.0131654491864
"165","pav",107,"control","second",5,"CSplus",3,0.4894025,1,55.2631539245152
"166","pav",107,"control","second",6,"CSminus",3,0.3898597,1,74.0131654491864
"167","pav",107,"control","second",7,"CSplus",4,0.534458,1,55.2631539245152
"168","pav",107,"control","second",8,"CSminus",4,0.5145672,1,74.0131654491864
"169","pav",107,"control","second",9,"CSminus",5,0.4603098,1,74.0131654491864
"170","pav",107,"control","second",10,"CSplus",5,0.5382058,1,55.2631539245152
"171","pav",107,"control","second",11,"CSminus",6,0.4983982,1,74.0131654491864
"172","pav",107,"control","second",12,"CSplus",6,0.4653005,1,55.2631539245152
"173","pav",107,"control","second",13,"CSplus",7,0.646977,1,55.2631539245152
"174","pav",107,"control","second",14,"CSminus",7,0.5231739,1,74.0131654491864
"175","pav",107,"control","second",15,"CSminus",8,0.7071456,1,74.0131654491864
"176","pav",107,"control","second",16,"CSplus",8,0.4675046,1,55.2631539245152
"177","pav",107,"control","second",17,"CSplus",9,0.3551915,1,55.2631539245152
"178","pav",107,"control","second",18,"CSminus",9,0.5534976,1,74.0131654491864
"179","pav",107,"control","second",19,"CSminus",10,0.4663794,1,74.0131654491864
"180","pav",107,"control","second",20,"CSplus",10,0.7743569,1,55.2631539245152
"181","pav",107,"control","second",21,"CSplus",11,0.5187416,1,55.2631539245152
"182","pav",107,"control","second",22,"CSminus",11,0.3700378,1,74.0131654491864
"183","pav",107,"control","second",23,"CSminus",12,0.5848361,1,74.0131654491864
"184","pav",107,"control","second",24,"CSplus",12,0,0,55.2631539245152
"185","pav",107,"control","second",25,"CSminus",13,0.3413989,1,74.0131654491864
"186","pav",107,"control","second",26,"CSplus",13,0.5011351,1,55.2631539245152
"187","pav",107,"control","second",27,"CSplus",14,0.5701432,1,55.2631539245152
"188","pav",107,"control","second",28,"CSminus",14,0.4559988,1,74.0131654491864
"189","pav",107,"control","second",29,"CSplus",15,0.293383,1,55.2631539245152
"190","pav",107,"control","second",30,"CSminus",15,0.4850405,1,74.0131654491864
"191","pav",107,"control","second",31,"CSplus",16,0.7936024,1,55.2631539245152
"192","pav",107,"control","second",32,"CSminus",16,0.5055385,1,74.0131654491864
"193","pav",107,"control","second",33,"CSplus",17,0.5159794,1,55.2631539245152
"194","pav",107,"control","second",34,"CSminus",17,0.4656279,1,74.0131654491864
"195","pav",107,"control","second",35,"CSplus",18,0.4455607,1,55.2631539245152
"196","pav",107,"control","second",36,"CSminus",18,0.5938091,1,74.0131654491864
"197","pav",107,"control","second",37,"CSplus",19,0.5176639,1,55.2631539245152
"198","pav",107,"control","second",38,"CSminus",19,0.5880519,1,74.0131654491864
"199","pav",107,"control","second",39,"CSplus",20,0.7857434,1,55.2631539245152
"200","pav",107,"control","second",40,"CSminus",20,0.6007056,1,74.0131654491864
"201","pav",108,"control","second",1,"CSminus",1,0.2782509,1,52.3026365023373
"202","pav",108,"control","second",2,"CSplus",1,0.3038978,1,91.776317876991
"203","pav",108,"control","second",3,"CSminus",2,0.379308,1,52.3026365023373
"204","pav",108,"control","second",4,"CSplus",2,0.3969776,1,91.776317876991
"205","pav",108,"control","second",5,"CSminus",3,0.4180232,1,52.3026365023373
"206","pav",108,"control","second",6,"CSplus",3,0.2886154,1,91.776317876991
"207","pav",108,"control","second",7,"CSplus",4,0.3212906,1,91.776317876991
"208","pav",108,"control","second",8,"CSminus",4,0.3681198,1,52.3026365023373
"209","pav",108,"control","second",9,"CSplus",5,0.3633264,1,91.776317876991
"210","pav",108,"control","second",10,"CSminus",5,0.3198447,1,52.3026365023373
"211","pav",108,"control","second",11,"CSplus",6,0.2498254,1,91.776317876991
"212","pav",108,"control","second",12,"CSminus",6,0.7724983,1,52.3026365023373
"213","pav",108,"control","second",13,"CSplus",7,0.5260012,1,91.776317876991
"214","pav",108,"control","second",14,"CSminus",7,0.6291443,1,52.3026365023373
"215","pav",108,"control","second",15,"CSplus",8,0.2939698,1,91.776317876991
"216","pav",108,"control","second",16,"CSminus",8,0.2669575,1,52.3026365023373
"217","pav",108,"control","second",17,"CSplus",9,0.4955654,1,91.776317876991
"218","pav",108,"control","second",18,"CSminus",9,0.3244822,1,52.3026365023373
"219","pav",108,"control","second",19,"CSplus",10,0.3654911,1,91.776317876991
"220","pav",108,"control","second",20,"CSminus",10,0.330666,1,52.3026365023373
"221","pav",108,"control","second",21,"CSplus",11,0.3537441,1,91.776317876991
"222","pav",108,"control","second",22,"CSminus",11,0.301526,1,52.3026365023373
"223","pav",108,"control","second",23,"CSminus",12,0.6123699,1,52.3026365023373
"224","pav",108,"control","second",24,"CSplus",12,0.2929935,1,91.776317876991
"225","pav",108,"control","second",25,"CSplus",13,0.3732455,1,91.776317876991
"226","pav",108,"control","second",26,"CSminus",13,0.3072302,1,52.3026365023373
"227","pav",108,"control","second",27,"CSminus",14,0.3888665,1,52.3026365023373
"228","pav",108,"control","second",28,"CSplus",14,0.3537589,1,91.776317876991
"229","pav",108,"control","second",29,"CSminus",15,0.3784064,1,52.3026365023373
"230","pav",108,"control","second",30,"CSplus",15,0.3850107,1,91.776317876991
"231","pav",108,"control","second",31,"CSminus",16,0.39236,1,52.3026365023373
"232","pav",108,"control","second",32,"CSplus",16,0.3409561,1,91.776317876991
"233","pav",108,"control","second",33,"CSplus",17,0.4020587,1,91.776317876991
"234","pav",108,"control","second",34,"CSminus",17,0.3558623,1,52.3026365023373
"235","pav",108,"control","second",35,"CSplus",18,0.477788,1,91.776317876991
"236","pav",108,"control","second",36,"CSminus",18,0.3291784,1,52.3026365023373
"237","pav",108,"control","second",37,"CSplus",19,0.2721592,1,91.776317876991
"238","pav",108,"control","second",38,"CSminus",19,0.3789773,1,52.3026365023373
"239","pav",108,"control","second",39,"CSplus",20,0.3772861,1,91.776317876991
"240","pav",108,"control","second",40,"CSminus",20,0.2865698,1,52.3026365023373
"241","pav",109,"control","second",1,"CSminus",1,0.3162868,1,51.644742411444
"242","pav",109,"control","second",2,"CSplus",1,0.3366753,1,56.5789540799863
"243","pav",109,"control","second",3,"CSminus",2,0.5721321,1,51.644742411444
"244","pav",109,"control","second",4,"CSplus",2,0.6594195,1,56.5789540799863
"245","pav",109,"control","second",5,"CSplus",3,0.3133197,1,56.5789540799863
"246","pav",109,"control","second",6,"CSminus",3,0.5111467,1,51.644742411444
"247","pav",109,"control","second",7,"CSminus",4,0.3790402,1,51.644742411444
"248","pav",109,"control","second",8,"CSplus",4,0.6693311,1,56.5789540799863
"249","pav",109,"control","second",9,"CSminus",5,0.3237965,1,51.644742411444
"250","pav",109,"control","second",10,"CSplus",5,0.311327,1,56.5789540799863
"251","pav",109,"control","second",11,"CSplus",6,0.5974814,1,56.5789540799863
"252","pav",109,"control","second",12,"CSminus",6,0.8892849,1,51.644742411444
"253","pav",109,"control","second",13,"CSminus",7,0.5318754,1,51.644742411444
"254","pav",109,"control","second",14,"CSplus",7,0.474258,1,56.5789540799863
"255","pav",109,"control","second",15,"CSminus",8,0.5025603,1,51.644742411444
"256","pav",109,"control","second",16,"CSplus",8,0.4711273,1,56.5789540799863
"257","pav",109,"control","second",17,"CSminus",9,0.3192347,1,51.644742411444
"258","pav",109,"control","second",18,"CSplus",9,0.4893114,1,56.5789540799863
"259","pav",109,"control","second",19,"CSplus",10,0.3840212,1,56.5789540799863
"260","pav",109,"control","second",20,"CSminus",10,0.4652809,1,51.644742411444
"261","pav",109,"control","second",21,"CSplus",11,0.5811143,1,56.5789540799863
"262","pav",109,"control","second",22,"CSminus",11,0.6010781,1,51.644742411444
"263","pav",109,"control","second",23,"CSplus",12,0.4616149,1,56.5789540799863
"264","pav",109,"control","second",24,"CSminus",12,0.419269,1,51.644742411444
"265","pav",109,"control","second",25,"CSminus",13,0.3999543,1,51.644742411444
"266","pav",109,"control","second",26,"CSplus",13,0.4383174,1,56.5789540799863
"267","pav",109,"control","second",27,"CSplus",14,0.452466,1,56.5789540799863
"268","pav",109,"control","second",28,"CSminus",14,0.4637016,1,51.644742411444
"269","pav",109,"control","second",29,"CSplus",15,0.4459567,1,56.5789540799863
"270","pav",109,"control","second",30,"CSminus",15,0.4939165,1,51.644742411444
"271","pav",109,"control","second",31,"CSplus",16,0.4843121,1,56.5789540799863
"272","pav",109,"control","second",32,"CSminus",16,0.3624393,1,51.644742411444
"273","pav",109,"control","second",33,"CSplus",17,0.5072363,1,56.5789540799863
"274","pav",109,"control","second",34,"CSminus",17,0.4724141,1,51.644742411444
"275","pav",109,"control","second",35,"CSminus",18,0.5515092,1,51.644742411444
"276","pav",109,"control","second",36,"CSplus",18,0.307303,1,56.5789540799863
"277","pav",109,"control","second",37,"CSminus",19,0.4361024,1,51.644742411444
"278","pav",109,"control","second",38,"CSplus",19,0.4708492,1,56.5789540799863
"279","pav",109,"control","second",39,"CSplus",20,0.5865357,1,56.5789540799863
"280","pav",109,"control","second",40,"CSminus",20,0.6974512,1,51.644742411444
"281","pav",110,"control","second",1,"CSplus",1,0.5472446,1,57.2368481708796
"282","pav",110,"control","second",2,"CSminus",1,0.5285968,1,38.4868486198928
"283","pav",110,"control","second",3,"CSplus",2,0.5166992,1,57.2368481708796
"284","pav",110,"control","second",4,"CSminus",2,0.3522006,1,38.4868486198928
"285","pav",110,"control","second",5,"CSminus",3,0.3130993,1,38.4868486198928
"286","pav",110,"control","second",6,"CSplus",3,0.3804588,1,57.2368481708796
"287","pav",110,"control","second",7,"CSplus",4,0.2239427,1,57.2368481708796
"288","pav",110,"control","second",8,"CSminus",4,0.2473297,1,38.4868486198928
"289","pav",110,"control","second",9,"CSplus",5,0.2341857,1,57.2368481708796
"290","pav",110,"control","second",10,"CSminus",5,0.2669909,1,38.4868486198928
"291","pav",110,"control","second",11,"CSplus",6,0.4041803,1,57.2368481708796
"292","pav",110,"control","second",12,"CSminus",6,0.2452664,1,38.4868486198928
"293","pav",110,"control","second",13,"CSminus",7,0.2294237,1,38.4868486198928
"294","pav",110,"control","second",14,"CSplus",7,0.2898362,1,57.2368481708796
"295","pav",110,"control","second",15,"CSminus",8,0.2373545,1,38.4868486198928
"296","pav",110,"control","second",16,"CSplus",8,0.6290406,1,57.2368481708796
"297","pav",110,"control","second",17,"CSplus",9,0.4509224,1,57.2368481708796
"298","pav",110,"control","second",18,"CSminus",9,0.3006869,1,38.4868486198928
"299","pav",110,"control","second",19,"CSminus",10,0.392351,1,38.4868486198928
"300","pav",110,"control","second",20,"CSplus",10,0.3896511,1,57.2368481708796
"301","pav",110,"control","second",21,"CSminus",11,0,0,38.4868486198928
"302","pav",110,"control","second",22,"CSplus",11,0.2497255,1,57.2368481708796
"303","pav",110,"control","second",23,"CSplus",12,0.9979127,1,57.2368481708796
"304","pav",110,"control","second",24,"CSminus",12,0.4180113,1,38.4868486198928
"305","pav",110,"control","second",25,"CSminus",13,0.299207,1,38.4868486198928
"306","pav",110,"control","second",26,"CSplus",13,0.08559838,1,57.2368481708796
"307","pav",110,"control","second",27,"CSplus",14,0.1635062,1,57.2368481708796
"308","pav",110,"control","second",28,"CSminus",14,0.2974828,1,38.4868486198928
"309","pav",110,"control","second",29,"CSplus",15,0.9685251,1,57.2368481708796
"310","pav",110,"control","second",30,"CSminus",15,0.3123482,1,38.4868486198928
"311","pav",110,"control","second",31,"CSplus",16,0.3505575,1,57.2368481708796
"312","pav",110,"control","second",32,"CSminus",16,0.281966,1,38.4868486198928
"313","pav",110,"control","second",33,"CSminus",17,0.2380717,1,38.4868486198928
"314","pav",110,"control","second",34,"CSplus",17,0.3346282,1,57.2368481708796
"315","pav",110,"control","second",35,"CSplus",18,0.2193533,1,57.2368481708796
"316","pav",110,"control","second",36,"CSminus",18,0.2616122,1,38.4868486198928
"317","pav",110,"control","second",37,"CSminus",19,0.2647689,1,38.4868486198928
"318","pav",110,"control","second",38,"CSplus",19,0.2384848,1,57.2368481708796
"319","pav",110,"control","second",39,"CSplus",20,0.3408649,1,57.2368481708796
"320","pav",110,"control","second",40,"CSminus",20,0.3143672,1,38.4868486198928
"321","pav",112,"control","second",1,"CSplus",1,0.3409414,1,91.776317876991
"322","pav",112,"control","second",2,"CSminus",1,0.3941179,1,46.7105307429017
"323","pav",112,"control","second",3,"CSminus",2,0.453678,1,46.7105307429017
"324","pav",112,"control","second",4,"CSplus",2,0.3644374,1,91.776317876991
"325","pav",112,"control","second",5,"CSplus",3,0.315146,1,91.776317876991
"326","pav",112,"control","second",6,"CSminus",3,0.3404346,1,46.7105307429017
"327","pav",112,"control","second",7,"CSminus",4,0.2593388,1,46.7105307429017
"328","pav",112,"control","second",8,"CSplus",4,0.2502668,1,91.776317876991
"329","pav",112,"control","second",9,"CSminus",5,0.254385,1,46.7105307429017
"330","pav",112,"control","second",10,"CSplus",5,0.2511546,1,91.776317876991
"331","pav",112,"control","second",11,"CSplus",6,0.290349,1,91.776317876991
"332","pav",112,"control","second",12,"CSminus",6,0.2351053,1,46.7105307429017
"333","pav",112,"control","second",13,"CSminus",7,0.3381949,1,46.7105307429017
"334","pav",112,"control","second",14,"CSplus",7,0.2752671,1,91.776317876991
"335","pav",112,"control","second",15,"CSminus",8,0.2775164,1,46.7105307429017
"336","pav",112,"control","second",16,"CSplus",8,0.3495823,1,91.776317876991
"337","pav",112,"control","second",17,"CSminus",9,0.3728933,1,46.7105307429017
"338","pav",112,"control","second",18,"CSplus",9,0.2986746,1,91.776317876991
"339","pav",112,"control","second",19,"CSminus",10,0.3487644,1,46.7105307429017
"340","pav",112,"control","second",20,"CSplus",10,0.3137912,1,91.776317876991
"341","pav",112,"control","second",21,"CSplus",11,0.3106675,1,91.776317876991
"342","pav",112,"control","second",22,"CSminus",11,0.301415,1,46.7105307429017
"343","pav",112,"control","second",23,"CSminus",12,0.2762793,1,46.7105307429017
"344","pav",112,"control","second",24,"CSplus",12,0.2657682,1,91.776317876991
"345","pav",112,"control","second",25,"CSplus",13,0.3523368,1,91.776317876991
"346","pav",112,"control","second",26,"CSminus",13,0.2650517,1,46.7105307429017
"347","pav",112,"control","second",27,"CSplus",14,0.3085459,1,91.776317876991
"348","pav",112,"control","second",28,"CSminus",14,0.3150699,1,46.7105307429017
"349","pav",112,"control","second",29,"CSplus",15,0.2290187,1,91.776317876991
"350","pav",112,"control","second",30,"CSminus",15,0.3393518,1,46.7105307429017
"351","pav",112,"control","second",31,"CSminus",16,0.3612118,1,46.7105307429017
"352","pav",112,"control","second",32,"CSplus",16,0.3399769,1,91.776317876991
"353","pav",112,"control","second",33,"CSminus",17,0.2420649,1,46.7105307429017
"354","pav",112,"control","second",34,"CSplus",17,0.3807972,1,91.776317876991
"355","pav",112,"control","second",35,"CSminus",18,0.2341293,1,46.7105307429017
"356","pav",112,"control","second",36,"CSplus",18,0.3675559,1,91.776317876991
"357","pav",112,"control","second",37,"CSplus",19,0.3905886,1,91.776317876991
"358","pav",112,"control","second",38,"CSminus",19,0.2868863,1,46.7105307429017
"359","pav",112,"control","second",39,"CSplus",20,0.2410405,1,91.776317876991
"360","pav",112,"control","second",40,"CSminus",20,0.2377039,1,46.7105307429017
"361","pav",113,"control","second",1,"CSplus",1,0.5634265,1,50.0000011973684
"362","pav",113,"control","second",2,"CSminus",1,0.4539604,1,50.0000011973684
"363","pav",113,"control","second",3,"CSplus",2,0.4019595,1,50.0000011973684
"364","pav",113,"control","second",4,"CSminus",2,0.7125939,1,50.0000011973684
"365","pav",113,"control","second",5,"CSminus",3,0.6261619,1,50.0000011973684
"366","pav",113,"control","second",6,"CSplus",3,0.549312,1,50.0000011973684
"367","pav",113,"control","second",7,"CSplus",4,0.4847526,1,50.0000011973684
"368","pav",113,"control","second",8,"CSminus",4,0.5573014,1,50.0000011973684
"369","pav",113,"control","second",9,"CSminus",5,0.5049686,1,50.0000011973684
"370","pav",113,"control","second",10,"CSplus",5,0.4885648,1,50.0000011973684
"371","pav",113,"control","second",11,"CSplus",6,0.5903487,1,50.0000011973684
"372","pav",113,"control","second",12,"CSminus",6,0.471073,1,50.0000011973684
"373","pav",113,"control","second",13,"CSplus",7,0.4434667,1,50.0000011973684
"374","pav",113,"control","second",14,"CSminus",7,0.5189423,1,50.0000011973684
"375","pav",113,"control","second",15,"CSminus",8,0.6014957,1,50.0000011973684
"376","pav",113,"control","second",16,"CSplus",8,0.5973255,1,50.0000011973684
"377","pav",113,"control","second",17,"CSminus",9,0.4717084,1,50.0000011973684
"378","pav",113,"control","second",18,"CSplus",9,0.544299,1,50.0000011973684
"379","pav",113,"control","second",19,"CSminus",10,0.6047983,1,50.0000011973684
"380","pav",113,"control","second",20,"CSplus",10,0.6111651,1,50.0000011973684
"381","pav",113,"control","second",21,"CSminus",11,0.531386,1,50.0000011973684
"382","pav",113,"control","second",22,"CSplus",11,0.5080967,1,50.0000011973684
"383","pav",113,"control","second",23,"CSminus",12,0.5104236,1,50.0000011973684
"384","pav",113,"control","second",24,"CSplus",12,0.4698684,1,50.0000011973684
"385","pav",113,"control","second",25,"CSminus",13,0.3992417,1,50.0000011973684
"386","pav",113,"control","second",26,"CSplus",13,0.6259316,1,50.0000011973684
"387","pav",113,"control","second",27,"CSplus",14,0.650261,1,50.0000011973684
"388","pav",113,"control","second",28,"CSminus",14,0.8443717,1,50.0000011973684
"389","pav",113,"control","second",29,"CSplus",15,0.5450139,1,50.0000011973684
"390","pav",113,"control","second",30,"CSminus",15,0.5813707,1,50.0000011973684
"391","pav",113,"control","second",31,"CSplus",16,0.7461351,1,50.0000011973684
"392","pav",113,"control","second",32,"CSminus",16,0.482891,1,50.0000011973684
"393","pav",113,"control","second",33,"CSplus",17,0.4490096,1,50.0000011973684
"394","pav",113,"control","second",34,"CSminus",17,0.6516421,1,50.0000011973684
"395","pav",113,"control","second",35,"CSminus",18,0.4002468,1,50.0000011973684
"396","pav",113,"control","second",36,"CSplus",18,0.624243,1,50.0000011973684
"397","pav",113,"control","second",37,"CSplus",19,0.4751701,1,50.0000011973684
"398","pav",113,"control","second",38,"CSminus",19,0.4464027,1,50.0000011973684
"399","pav",113,"control","second",39,"CSminus",20,0.6280751,1,50.0000011973684
"400","pav",113,"control","second",40,"CSplus",20,0.5480977,1,50.0000011973684
"401","pav",114,"control","second",1,"CSminus",1,0.8647785,1,8.22368451774585
"402","pav",114,"control","second",2,"CSplus",1,0.0002883406,1,6.90789633595917
"403","pav",114,"control","second",3,"CSminus",2,0.0002453621,1,8.22368451774585
"404","pav",114,"control","second",4,"CSplus",2,0.0003098298,1,6.90789633595917
"405","pav",114,"control","second",5,"CSminus",3,0.0002758319,1,8.22368451774585
"406","pav",114,"control","second",6,"CSplus",3,0.09462959,1,6.90789633595917
"407","pav",114,"control","second",7,"CSplus",4,0.06602389,1,6.90789633595917
"408","pav",114,"control","second",8,"CSminus",4,0.0001805737,1,8.22368451774585
"409","pav",114,"control","second",9,"CSplus",5,0.0185529,1,6.90789633595917
"410","pav",114,"control","second",10,"CSminus",5,0.0002751904,1,8.22368451774585
"411","pav",114,"control","second",11,"CSminus",6,0.0001853847,1,8.22368451774585
"412","pav",114,"control","second",12,"CSplus",6,0.03289424,1,6.90789633595917
"413","pav",114,"control","second",13,"CSminus",7,0.0001853847,1,8.22368451774585
"414","pav",114,"control","second",14,"CSplus",7,0.0001658199,1,6.90789633595917
"415","pav",114,"control","second",15,"CSplus",8,0.0001751212,1,6.90789633595917
"416","pav",114,"control","second",16,"CSminus",8,0.0002155338,1,8.22368451774585
"417","pav",114,"control","second",17,"CSminus",9,0.0002206655,1,8.22368451774585
"418","pav",114,"control","second",18,"CSplus",9,0.0002514561,1,6.90789633595917
"419","pav",114,"control","second",19,"CSplus",10,0.0002068739,1,6.90789633595917
"420","pav",114,"control","second",20,"CSminus",10,0.0002039873,1,8.22368451774585
"421","pav",114,"control","second",21,"CSminus",11,0.0002155338,1,8.22368451774585
"422","pav",114,"control","second",22,"CSplus",11,0.04325654,1,6.90789633595917
"423","pav",114,"control","second",23,"CSplus",12,0.1255872,1,6.90789633595917
"424","pav",114,"control","second",24,"CSminus",12,0.0003021321,1,8.22368451774585
"425","pav",114,"control","second",25,"CSplus",13,0.9759792,1,6.90789633595917
"426","pav",114,"control","second",26,"CSminus",13,0.0003871269,1,8.22368451774585
"427","pav",114,"control","second",27,"CSplus",14,0.0201569,1,6.90789633595917
"428","pav",114,"control","second",28,"CSminus",14,0.03110742,1,8.22368451774585
"429","pav",114,"control","second",29,"CSminus",15,0.1087307,1,8.22368451774585
"430","pav",114,"control","second",30,"CSplus",15,0.5221937,1,6.90789633595917
"431","pav",114,"control","second",31,"CSminus",16,0.04512225,1,8.22368451774585
"432","pav",114,"control","second",32,"CSplus",16,0.0002931516,1,6.90789633595917
"433","pav",114,"control","second",33,"CSplus",17,0.1242639,1,6.90789633595917
"434","pav",114,"control","second",34,"CSminus",17,0.1321729,1,8.22368451774585
"435","pav",114,"control","second",35,"CSplus",18,0.05308257,1,6.90789633595917
"436","pav",114,"control","second",36,"CSminus",18,0.8078218,1,8.22368451774585
"437","pav",114,"control","second",37,"CSplus",19,0.0002399096,1,6.90789633595917
"438","pav",114,"control","second",38,"CSminus",19,0.0002171374,1,8.22368451774585
"439","pav",114,"control","second",39,"CSminus",20,0.0003698072,1,8.22368451774585
"440","pav",114,"control","second",40,"CSplus",20,0.0002107227,1,6.90789633595917
"441","pav",115,"control","second",1,"CSminus",1,0.2889073,1,50.0000011973684
"442","pav",115,"control","second",2,"CSplus",1,0.3904744,1,77.9605299945465
"443","pav",115,"control","second",3,"CSplus",2,0.316002,1,77.9605299945465
"444","pav",115,"control","second",4,"CSminus",2,0.3921525,1,50.0000011973684
"445","pav",115,"control","second",5,"CSminus",3,0.5549691,1,50.0000011973684
"446","pav",115,"control","second",6,"CSplus",3,0.3828355,1,77.9605299945465
"447","pav",115,"control","second",7,"CSplus",4,0.2911483,1,77.9605299945465
"448","pav",115,"control","second",8,"CSminus",4,0.2979337,1,50.0000011973684
"449","pav",115,"control","second",9,"CSminus",5,0.3075593,1,50.0000011973684
"450","pav",115,"control","second",10,"CSplus",5,0.2783289,1,77.9605299945465
"451","pav",115,"control","second",11,"CSminus",6,0.291962,1,50.0000011973684
"452","pav",115,"control","second",12,"CSplus",6,0.3288348,1,77.9605299945465
"453","pav",115,"control","second",13,"CSminus",7,0.3018813,1,50.0000011973684
"454","pav",115,"control","second",14,"CSplus",7,0.2868068,1,77.9605299945465
"455","pav",115,"control","second",15,"CSplus",8,0,0,77.9605299945465
"456","pav",115,"control","second",16,"CSminus",8,0.3035655,1,50.0000011973684
"457","pav",115,"control","second",17,"CSminus",9,0.2682755,1,50.0000011973684
"458","pav",115,"control","second",18,"CSplus",9,0.2614301,1,77.9605299945465
"459","pav",115,"control","second",19,"CSplus",10,0.4065884,1,77.9605299945465
"460","pav",115,"control","second",20,"CSminus",10,0.5355981,1,50.0000011973684
"461","pav",115,"control","second",21,"CSminus",11,0.32206,1,50.0000011973684
"462","pav",115,"control","second",22,"CSplus",11,0.2902397,1,77.9605299945465
"463","pav",115,"control","second",23,"CSminus",12,0.3114879,1,50.0000011973684
"464","pav",115,"control","second",24,"CSplus",12,0.3168169,1,77.9605299945465
"465","pav",115,"control","second",25,"CSplus",13,0.329364,1,77.9605299945465
"466","pav",115,"control","second",26,"CSminus",13,0.6467535,1,50.0000011973684
"467","pav",115,"control","second",27,"CSminus",14,0.3578314,1,50.0000011973684
"468","pav",115,"control","second",28,"CSplus",14,0.3403662,1,77.9605299945465
"469","pav",115,"control","second",29,"CSplus",15,0.6104272,1,77.9605299945465
"470","pav",115,"control","second",30,"CSminus",15,0.3885022,1,50.0000011973684
"471","pav",115,"control","second",31,"CSplus",16,0.3691196,1,77.9605299945465
"472","pav",115,"control","second",32,"CSminus",16,0.3748098,1,50.0000011973684
"473","pav",115,"control","second",33,"CSminus",17,0.3168721,1,50.0000011973684
"474","pav",115,"control","second",34,"CSplus",17,0.2672443,1,77.9605299945465
"475","pav",115,"control","second",35,"CSplus",18,0.5855235,1,77.9605299945465
"476","pav",115,"control","second",36,"CSminus",18,0.3679114,1,50.0000011973684
"477","pav",115,"control","second",37,"CSminus",19,0.3370334,1,50.0000011973684
"478","pav",115,"control","second",38,"CSplus",19,0.3124771,1,77.9605299945465
"479","pav",115,"control","second",39,"CSplus",20,0.3281998,1,77.9605299945465
"480","pav",115,"control","second",40,"CSminus",20,0.7063712,1,50.0000011973684
"481","pav",116,"control","second",1,"CSminus",1,0.3626952,1,0
"482","pav",116,"control","second",2,"CSplus",1,0.3864919,1,91.4473648447022
"483","pav",116,"control","second",3,"CSminus",2,0.4696394,1,0
"484","pav",116,"control","second",4,"CSplus",2,0.3179952,1,91.4473648447022
"485","pav",116,"control","second",5,"CSminus",3,0.3408329,1,0
"486","pav",116,"control","second",6,"CSplus",3,0.3340225,1,91.4473648447022
"487","pav",116,"control","second",7,"CSminus",4,0.3054241,1,0
"488","pav",116,"control","second",8,"CSplus",4,0.3155977,1,91.4473648447022
"489","pav",116,"control","second",9,"CSminus",5,0.4752333,1,0
"490","pav",116,"control","second",10,"CSplus",5,0.3102608,1,91.4473648447022
"491","pav",116,"control","second",11,"CSplus",6,0.2474583,1,91.4473648447022
"492","pav",116,"control","second",12,"CSminus",6,0.3675624,1,0
"493","pav",116,"control","second",13,"CSminus",7,0.3403787,1,0
"494","pav",116,"control","second",14,"CSplus",7,0.301025,1,91.4473648447022
"495","pav",116,"control","second",15,"CSplus",8,0.448881,1,91.4473648447022
"496","pav",116,"control","second",16,"CSminus",8,0.4072478,1,0
"497","pav",116,"control","second",17,"CSplus",9,0.3118073,1,91.4473648447022
"498","pav",116,"control","second",18,"CSminus",9,0.419441,1,0
"499","pav",116,"control","second",19,"CSplus",10,0.3000198,1,91.4473648447022
"500","pav",116,"control","second",20,"CSminus",10,0.4378568,1,0
"501","pav",116,"control","second",21,"CSplus",11,0.2615843,1,91.4473648447022
"502","pav",116,"control","second",22,"CSminus",11,0.3813711,1,0
"503","pav",116,"control","second",23,"CSminus",12,0.4372743,1,0
"504","pav",116,"control","second",24,"CSplus",12,0.5017372,1,91.4473648447022
"505","pav",116,"control","second",25,"CSminus",13,0.3077234,1,0
"506","pav",116,"control","second",26,"CSplus",13,0.384752,1,91.4473648447022
"507","pav",116,"control","second",27,"CSminus",14,0.5025689,1,0
"508","pav",116,"control","second",28,"CSplus",14,0.3065739,1,91.4473648447022
"509","pav",116,"control","second",29,"CSplus",15,0.3968015,1,91.4473648447022
"510","pav",116,"control","second",30,"CSminus",15,0.3393527,1,0
"511","pav",116,"control","second",31,"CSplus",16,0.2903731,1,91.4473648447022
"512","pav",116,"control","second",32,"CSminus",16,0.3638861,1,0
"513","pav",116,"control","second",33,"CSplus",17,0.2069438,1,91.4473648447022
"514","pav",116,"control","second",34,"CSminus",17,0.3516791,1,0
"515","pav",116,"control","second",35,"CSplus",18,0.3848982,1,91.4473648447022
"516","pav",116,"control","second",36,"CSminus",18,0.3752949,1,0
"517","pav",116,"control","second",37,"CSplus",19,0.2972156,1,91.4473648447022
"518","pav",116,"control","second",38,"CSminus",19,0.5079363,1,0
"519","pav",116,"control","second",39,"CSplus",20,0.3278894,1,91.4473648447022
"520","pav",116,"control","second",40,"CSminus",20,0.328714,1,0
"521","pav",118,"control","second",1,"CSplus",1,0.4014626,1,27.631578159626
"522","pav",118,"control","second",2,"CSminus",1,0.5835105,1,56.2500010476974
"523","pav",118,"control","second",3,"CSplus",2,0.4840514,1,27.631578159626
"524","pav",118,"control","second",4,"CSminus",2,0.5431997,1,56.2500010476974
"525","pav",118,"control","second",5,"CSplus",3,0.5011617,1,27.631578159626
"526","pav",118,"control","second",6,"CSminus",3,0.4526795,1,56.2500010476974
"527","pav",118,"control","second",7,"CSminus",4,0.6652865,1,56.2500010476974
"528","pav",118,"control","second",8,"CSplus",4,0.6687819,1,27.631578159626
"529","pav",118,"control","second",9,"CSminus",5,0.5939897,1,56.2500010476974
"530","pav",118,"control","second",10,"CSplus",5,0.6525565,1,27.631578159626
"531","pav",118,"control","second",11,"CSminus",6,0.5217334,1,56.2500010476974
"532","pav",118,"control","second",12,"CSplus",6,0.5359177,1,27.631578159626
"533","pav",118,"control","second",13,"CSminus",7,0.4505155,1,56.2500010476974
"534","pav",118,"control","second",14,"CSplus",7,0.5697359,1,27.631578159626
"535","pav",118,"control","second",15,"CSminus",8,0.4470085,1,56.2500010476974
"536","pav",118,"control","second",16,"CSplus",8,0.5039964,1,27.631578159626
"537","pav",118,"control","second",17,"CSminus",9,0.4010595,1,56.2500010476974
"538","pav",118,"control","second",18,"CSplus",9,0.5238169,1,27.631578159626
"539","pav",118,"control","second",19,"CSminus",10,0.4194883,1,56.2500010476974
"540","pav",118,"control","second",20,"CSplus",10,0.497962,1,27.631578159626
"541","pav",118,"control","second",21,"CSplus",11,0.4400097,1,27.631578159626
"542","pav",118,"control","second",22,"CSminus",11,0.3915586,1,56.2500010476974
"543","pav",118,"control","second",23,"CSplus",12,0.737535,1,27.631578159626
"544","pav",118,"control","second",24,"CSminus",12,0.4365564,1,56.2500010476974
"545","pav",118,"control","second",25,"CSplus",13,0.5236999,1,27.631578159626
"546","pav",118,"control","second",26,"CSminus",13,0.5191631,1,56.2500010476974
"547","pav",118,"control","second",27,"CSplus",14,0.5092895,1,27.631578159626
"548","pav",118,"control","second",28,"CSminus",14,0.4427796,1,56.2500010476974
"549","pav",118,"control","second",29,"CSplus",15,0.3748399,1,27.631578159626
"550","pav",118,"control","second",30,"CSminus",15,0.4834622,1,56.2500010476974
"551","pav",118,"control","second",31,"CSminus",16,0.3219998,1,56.2500010476974
"552","pav",118,"control","second",32,"CSplus",16,0.6653715,1,27.631578159626
"553","pav",118,"control","second",33,"CSminus",17,0.5946007,1,56.2500010476974
"554","pav",118,"control","second",34,"CSplus",17,0.3872351,1,27.631578159626
"555","pav",118,"control","second",35,"CSplus",18,0.38627,1,27.631578159626
"556","pav",118,"control","second",36,"CSminus",18,0.4100866,1,56.2500010476974
"557","pav",118,"control","second",37,"CSminus",19,0.3473733,1,56.2500010476974
"558","pav",118,"control","second",38,"CSplus",19,0.6118726,1,27.631578159626
"559","pav",118,"control","second",39,"CSminus",20,0.5583029,1,56.2500010476974
"560","pav",118,"control","second",40,"CSplus",20,0.3913482,1,27.631578159626
"561","pav",119,"control","second",1,"CSminus",1,0.2962223,1,38.4868486198928
"562","pav",119,"control","second",2,"CSplus",1,0.3260802,1,57.894742261773
"563","pav",119,"control","second",3,"CSplus",2,0.4825007,1,57.894742261773
"564","pav",119,"control","second",4,"CSminus",2,0.4996265,1,38.4868486198928
"565","pav",119,"control","second",5,"CSminus",3,0.3075621,1,38.4868486198928
"566","pav",119,"control","second",6,"CSplus",3,0.3133183,1,57.894742261773
"567","pav",119,"control","second",7,"CSplus",4,0.4080807,1,57.894742261773
"568","pav",119,"control","second",8,"CSminus",4,0.3769296,1,38.4868486198928
"569","pav",119,"control","second",9,"CSminus",5,0.3475378,1,38.4868486198928
"570","pav",119,"control","second",10,"CSplus",5,0.5409419,1,57.894742261773
"571","pav",119,"control","second",11,"CSplus",6,0.2906685,1,57.894742261773
"572","pav",119,"control","second",12,"CSminus",6,0.4106841,1,38.4868486198928
"573","pav",119,"control","second",13,"CSplus",7,0.3849287,1,57.894742261773
"574","pav",119,"control","second",14,"CSminus",7,0.4110404,1,38.4868486198928
"575","pav",119,"control","second",15,"CSplus",8,0.6588634,1,57.894742261773
"576","pav",119,"control","second",16,"CSminus",8,0.2749607,1,38.4868486198928
"577","pav",119,"control","second",17,"CSminus",9,0.3144373,1,38.4868486198928
"578","pav",119,"control","second",18,"CSplus",9,0.3428914,1,57.894742261773
"579","pav",119,"control","second",19,"CSplus",10,0.6123063,1,57.894742261773
"580","pav",119,"control","second",20,"CSminus",10,0.6639643,1,38.4868486198928
"581","pav",119,"control","second",21,"CSplus",11,0.4956979,1,57.894742261773
"582","pav",119,"control","second",22,"CSminus",11,0.5878245,1,38.4868486198928
"583","pav",119,"control","second",23,"CSplus",12,0.3987086,1,57.894742261773
"584","pav",119,"control","second",24,"CSminus",12,0.3771352,1,38.4868486198928
"585","pav",119,"control","second",25,"CSminus",13,0.7111288,1,38.4868486198928
"586","pav",119,"control","second",26,"CSplus",13,0.3556459,1,57.894742261773
"587","pav",119,"control","second",27,"CSplus",14,0.2205316,1,57.894742261773
"588","pav",119,"control","second",28,"CSminus",14,0.2743289,1,38.4868486198928
"589","pav",119,"control","second",29,"CSplus",15,0.3044696,1,57.894742261773
"590","pav",119,"control","second",30,"CSminus",15,0.2120052,1,38.4868486198928
"591","pav",119,"control","second",31,"CSplus",16,0.3586322,1,57.894742261773
"592","pav",119,"control","second",32,"CSminus",16,0.3281643,1,38.4868486198928
"593","pav",119,"control","second",33,"CSplus",17,0.4021408,1,57.894742261773
"594","pav",119,"control","second",34,"CSminus",17,0,0,38.4868486198928
"595","pav",119,"control","second",35,"CSplus",18,0.3304534,1,57.894742261773
"596","pav",119,"control","second",36,"CSminus",18,0.4293818,1,38.4868486198928
"597","pav",119,"control","second",37,"CSminus",19,0.4963785,1,38.4868486198928
"598","pav",119,"control","second",38,"CSplus",19,0.4278727,1,57.894742261773
"599","pav",119,"control","second",39,"CSminus",20,0.2248781,1,38.4868486198928
"600","pav",119,"control","second",40,"CSplus",20,0.465618,1,57.894742261773
"601","pav",120,"control","second",1,"CSminus",1,0.5662662,1,49.6710481650796
"602","pav",120,"control","second",2,"CSplus",1,0.3583349,1,81.9078945399065
"603","pav",120,"control","second",3,"CSminus",2,0.2931543,1,49.6710481650796
"604","pav",120,"control","second",4,"CSplus",2,0.3696209,1,81.9078945399065
"605","pav",120,"control","second",5,"CSminus",3,0.4319578,1,49.6710481650796
"606","pav",120,"control","second",6,"CSplus",3,0.3078735,1,81.9078945399065
"607","pav",120,"control","second",7,"CSplus",4,0.3467724,1,81.9078945399065
"608","pav",120,"control","second",8,"CSminus",4,0.5119759,1,49.6710481650796
"609","pav",120,"control","second",9,"CSplus",5,0.275885,1,81.9078945399065
"610","pav",120,"control","second",10,"CSminus",5,0.276453,1,49.6710481650796
"611","pav",120,"control","second",11,"CSminus",6,0.3314515,1,49.6710481650796
"612","pav",120,"control","second",12,"CSplus",6,0.583865,1,81.9078945399065
"613","pav",120,"control","second",13,"CSminus",7,0.3039208,1,49.6710481650796
"614","pav",120,"control","second",14,"CSplus",7,0.2567845,1,81.9078945399065
"615","pav",120,"control","second",15,"CSplus",8,0.5688594,1,81.9078945399065
"616","pav",120,"control","second",16,"CSminus",8,0.3028787,1,49.6710481650796
"617","pav",120,"control","second",17,"CSminus",9,0.8907109,1,49.6710481650796
"618","pav",120,"control","second",18,"CSplus",9,0.3692367,1,81.9078945399065
"619","pav",120,"control","second",19,"CSplus",10,0.4434415,1,81.9078945399065
"620","pav",120,"control","second",20,"CSminus",10,0.754854,1,49.6710481650796
"621","pav",120,"control","second",21,"CSminus",11,0.4086375,1,49.6710481650796
"622","pav",120,"control","second",22,"CSplus",11,0.2725657,1,81.9078945399065
"623","pav",120,"control","second",23,"CSminus",12,0.2921928,1,49.6710481650796
"624","pav",120,"control","second",24,"CSplus",12,0.3777862,1,81.9078945399065
"625","pav",120,"control","second",25,"CSminus",13,0.3190493,1,49.6710481650796
"626","pav",120,"control","second",26,"CSplus",13,0.3085368,1,81.9078945399065
"627","pav",120,"control","second",27,"CSplus",14,0.45335,1,81.9078945399065
"628","pav",120,"control","second",28,"CSminus",14,0.2980786,1,49.6710481650796
"629","pav",120,"control","second",29,"CSplus",15,0.2616257,1,81.9078945399065
"630","pav",120,"control","second",30,"CSminus",15,0.282369,1,49.6710481650796
"631","pav",120,"control","second",31,"CSplus",16,0.4478721,1,81.9078945399065
"632","pav",120,"control","second",32,"CSminus",16,0.4331391,1,49.6710481650796
"633","pav",120,"control","second",33,"CSplus",17,0.3751087,1,81.9078945399065
"634","pav",120,"control","second",34,"CSminus",17,0.3577303,1,49.6710481650796
"635","pav",120,"control","second",35,"CSminus",18,0.3358757,1,49.6710481650796
"636","pav",120,"control","second",36,"CSplus",18,0.433592,1,81.9078945399065
"637","pav",120,"control","second",37,"CSminus",19,0.4056697,1,49.6710481650796
"638","pav",120,"control","second",38,"CSplus",19,0.3395141,1,81.9078945399065
"639","pav",120,"control","second",39,"CSplus",20,0.3209894,1,81.9078945399065
"640","pav",120,"control","second",40,"CSminus",20,0.4169099,1,49.6710481650796
"641","pav",121,"control","second",1,"CSminus",1,0.2877348,1,81.5789534813021
"642","pav",121,"control","second",2,"CSplus",1,0.2581695,1,50.3289542296573
"643","pav",121,"control","second",3,"CSminus",2,0.3476618,1,81.5789534813021
"644","pav",121,"control","second",4,"CSplus",2,0.2739668,1,50.3289542296573
"645","pav",121,"control","second",5,"CSminus",3,0.3004434,1,81.5789534813021
"646","pav",121,"control","second",6,"CSplus",3,0.4351478,1,50.3289542296573
"647","pav",121,"control","second",7,"CSplus",4,0.289189,1,50.3289542296573
"648","pav",121,"control","second",8,"CSminus",4,0.2706639,1,81.5789534813021
"649","pav",121,"control","second",9,"CSminus",5,0.3174127,1,81.5789534813021
"650","pav",121,"control","second",10,"CSplus",5,0.2325602,1,50.3289542296573
"651","pav",121,"control","second",11,"CSminus",6,0.2139587,1,81.5789534813021
"652","pav",121,"control","second",12,"CSplus",6,0.2556585,1,50.3289542296573
"653","pav",121,"control","second",13,"CSminus",7,0.2390414,1,81.5789534813021
"654","pav",121,"control","second",14,"CSplus",7,0.430269,1,50.3289542296573
"655","pav",121,"control","second",15,"CSminus",8,0.3696621,1,81.5789534813021
"656","pav",121,"control","second",16,"CSplus",8,0.392405,1,50.3289542296573
"657","pav",121,"control","second",17,"CSminus",9,0.2689617,1,81.5789534813021
"658","pav",121,"control","second",18,"CSplus",9,0.393577,1,50.3289542296573
"659","pav",121,"control","second",19,"CSminus",10,0.4137895,1,81.5789534813021
"660","pav",121,"control","second",20,"CSplus",10,0.3255918,1,50.3289542296573
"661","pav",121,"control","second",21,"CSplus",11,0.2662556,1,50.3289542296573
"662","pav",121,"control","second",22,"CSminus",11,0.2181758,1,81.5789534813021
"663","pav",121,"control","second",23,"CSplus",12,0.4289126,1,50.3289542296573
"664","pav",121,"control","second",24,"CSminus",12,0.6299402,1,81.5789534813021
"665","pav",121,"control","second",25,"CSplus",13,0.3090318,1,50.3289542296573
"666","pav",121,"control","second",26,"CSminus",13,0.3612184,1,81.5789534813021
"667","pav",121,"control","second",27,"CSminus",14,0.2705753,1,81.5789534813021
"668","pav",121,"control","second",28,"CSplus",14,0.2808636,1,50.3289542296573
"669","pav",121,"control","second",29,"CSplus",15,0.2688793,1,50.3289542296573
"670","pav",121,"control","second",30,"CSminus",15,0.2543268,1,81.5789534813021
"671","pav",121,"control","second",31,"CSminus",16,0.3096771,1,81.5789534813021
"672","pav",121,"control","second",32,"CSplus",16,0.3848984,1,50.3289542296573
"673","pav",121,"control","second",33,"CSplus",17,0.2667143,1,50.3289542296573
"674","pav",121,"control","second",34,"CSminus",17,0.2895762,1,81.5789534813021
"675","pav",121,"control","second",35,"CSminus",18,0.2304889,1,81.5789534813021
"676","pav",121,"control","second",36,"CSplus",18,0.219901,1,50.3289542296573
"677","pav",121,"control","second",37,"CSminus",19,0,0,81.5789534813021
"678","pav",121,"control","second",38,"CSplus",19,0.2973149,1,50.3289542296573
"679","pav",121,"control","second",39,"CSplus",20,0.4854331,1,50.3289542296573
"680","pav",121,"control","second",40,"CSminus",20,0.2655349,1,81.5789534813021
"681","pav",122,"control","second",1,"CSplus",1,0.2794945,1,98.6842118182133
"682","pav",122,"control","second",2,"CSminus",1,0.2349104,1,36.5131543735283
"683","pav",122,"control","second",3,"CSplus",2,0.3040232,1,98.6842118182133
"684","pav",122,"control","second",4,"CSminus",2,0.4446157,1,36.5131543735283
"685","pav",122,"control","second",5,"CSminus",3,0.4134777,1,36.5131543735283
"686","pav",122,"control","second",6,"CSplus",3,0.2418726,1,98.6842118182133
"687","pav",122,"control","second",7,"CSminus",4,0.3058655,1,36.5131543735283
"688","pav",122,"control","second",8,"CSplus",4,0.2639861,1,98.6842118182133
"689","pav",122,"control","second",9,"CSminus",5,0.3092117,1,36.5131543735283
"690","pav",122,"control","second",10,"CSplus",5,0.2866776,1,98.6842118182133
"691","pav",122,"control","second",11,"CSminus",6,0.2557102,1,36.5131543735283
"692","pav",122,"control","second",12,"CSplus",6,0.3244401,1,98.6842118182133
"693","pav",122,"control","second",13,"CSplus",7,0.2537076,1,98.6842118182133
"694","pav",122,"control","second",14,"CSminus",7,0.5989443,1,36.5131543735283
"695","pav",122,"control","second",15,"CSplus",8,0.2486814,1,98.6842118182133
"696","pav",122,"control","second",16,"CSminus",8,0.3622423,1,36.5131543735283
"697","pav",122,"control","second",17,"CSplus",9,0.2169625,1,98.6842118182133
"698","pav",122,"control","second",18,"CSminus",9,0.5171542,1,36.5131543735283
"699","pav",122,"control","second",19,"CSplus",10,0.2699428,1,98.6842118182133
"700","pav",122,"control","second",20,"CSminus",10,0.5459557,1,36.5131543735283
"701","pav",122,"control","second",21,"CSminus",11,0.2456703,1,36.5131543735283
"702","pav",122,"control","second",22,"CSplus",11,0.3436398,1,98.6842118182133
"703","pav",122,"control","second",23,"CSminus",12,0.460738,1,36.5131543735283
"704","pav",122,"control","second",24,"CSplus",12,0.2252701,1,98.6842118182133
"705","pav",122,"control","second",25,"CSminus",13,0.5887764,1,36.5131543735283
"706","pav",122,"control","second",26,"CSplus",13,0.2436215,1,98.6842118182133
"707","pav",122,"control","second",27,"CSplus",14,0.2649926,1,98.6842118182133
"708","pav",122,"control","second",28,"CSminus",14,0.3573043,1,36.5131543735283
"709","pav",122,"control","second",29,"CSminus",15,0.4062792,1,36.5131543735283
"710","pav",122,"control","second",30,"CSplus",15,0.2111711,1,98.6842118182133
"711","pav",122,"control","second",31,"CSminus",16,0.4819666,1,36.5131543735283
"712","pav",122,"control","second",32,"CSplus",16,0.2433345,1,98.6842118182133
"713","pav",122,"control","second",33,"CSminus",17,0.3224352,1,36.5131543735283
"714","pav",122,"control","second",34,"CSplus",17,0.2377851,1,98.6842118182133
"715","pav",122,"control","second",35,"CSplus",18,0.2426253,1,98.6842118182133
"716","pav",122,"control","second",36,"CSminus",18,0.343676,1,36.5131543735283
"717","pav",122,"control","second",37,"CSplus",19,0.3120001,1,98.6842118182133
"718","pav",122,"control","second",38,"CSminus",19,0.3246444,1,36.5131543735283
"719","pav",122,"control","second",39,"CSminus",20,0.4252957,1,36.5131543735283
"720","pav",122,"control","second",40,"CSplus",20,0.2386107,1,98.6842118182133
"721","pav",123,"control","second",1,"CSplus",1,0.31996,1,86.1842121175554
"722","pav",123,"control","second",2,"CSminus",1,0.2688591,1,31.2500016463816
"723","pav",123,"control","second",3,"CSminus",2,0.5101632,1,31.2500016463816
"724","pav",123,"control","second",4,"CSplus",2,0.3627303,1,86.1842121175554
"725","pav",123,"control","second",5,"CSminus",3,0.385157,1,31.2500016463816
"726","pav",123,"control","second",6,"CSplus",3,0.3015974,1,86.1842121175554
"727","pav",123,"control","second",7,"CSminus",4,0.3218744,1,31.2500016463816
"728","pav",123,"control","second",8,"CSplus",4,0.3053706,1,86.1842121175554
"729","pav",123,"control","second",9,"CSplus",5,0.2934795,1,86.1842121175554
"730","pav",123,"control","second",10,"CSminus",5,0.247988,1,31.2500016463816
"731","pav",123,"control","second",11,"CSplus",6,0.3564278,1,86.1842121175554
"732","pav",123,"control","second",12,"CSminus",6,0.2716812,1,31.2500016463816
"733","pav",123,"control","second",13,"CSminus",7,0,0,31.2500016463816
"734","pav",123,"control","second",14,"CSplus",7,0.3501382,1,86.1842121175554
"735","pav",123,"control","second",15,"CSminus",8,0.2391151,1,31.2500016463816
"736","pav",123,"control","second",16,"CSplus",8,0.2792946,1,86.1842121175554
"737","pav",123,"control","second",17,"CSminus",9,0.3993217,1,31.2500016463816
"738","pav",123,"control","second",18,"CSplus",9,0.3404747,1,86.1842121175554
"739","pav",123,"control","second",19,"CSplus",10,0.3543398,1,86.1842121175554
"740","pav",123,"control","second",20,"CSminus",10,0.3851371,1,31.2500016463816
"741","pav",123,"control","second",21,"CSplus",11,0.381293,1,86.1842121175554
"742","pav",123,"control","second",22,"CSminus",11,0.2782381,1,31.2500016463816
"743","pav",123,"control","second",23,"CSminus",12,0.3685209,1,31.2500016463816
"744","pav",123,"control","second",24,"CSplus",12,0.7768721,1,86.1842121175554
"745","pav",123,"control","second",25,"CSminus",13,0.3263888,1,31.2500016463816
"746","pav",123,"control","second",26,"CSplus",13,0.3355908,1,86.1842121175554
"747","pav",123,"control","second",27,"CSplus",14,0.2915628,1,86.1842121175554
"748","pav",123,"control","second",28,"CSminus",14,0.3217664,1,31.2500016463816
"749","pav",123,"control","second",29,"CSminus",15,0.6207353,1,31.2500016463816
"750","pav",123,"control","second",30,"CSplus",15,0.4128007,1,86.1842121175554
"751","pav",123,"control","second",31,"CSplus",16,0.2787102,1,86.1842121175554
"752","pav",123,"control","second",32,"CSminus",16,0.3254167,1,31.2500016463816
"753","pav",123,"control","second",33,"CSplus",17,0.4558293,1,86.1842121175554
"754","pav",123,"control","second",34,"CSminus",17,0.3565363,1,31.2500016463816
"755","pav",123,"control","second",35,"CSplus",18,0.3686945,1,86.1842121175554
"756","pav",123,"control","second",36,"CSminus",18,0.4723951,1,31.2500016463816
"757","pav",123,"control","second",37,"CSplus",19,0,0,86.1842121175554
"758","pav",123,"control","second",38,"CSminus",19,0.3280663,1,31.2500016463816
"759","pav",123,"control","second",39,"CSminus",20,0.3367544,1,31.2500016463816
"760","pav",123,"control","second",40,"CSplus",20,0.3054671,1,86.1842121175554
"761","pav",124,"control","second",1,"CSminus",1,0.4088088,1,44.0789543793284
"762","pav",124,"control","second",2,"CSplus",1,0.5941705,1,100
"763","pav",124,"control","second",3,"CSplus",2,0.629142,1,100
"764","pav",124,"control","second",4,"CSminus",2,0.3833804,1,44.0789543793284
"765","pav",124,"control","second",5,"CSplus",3,0.9896862,1,100
"766","pav",124,"control","second",6,"CSminus",3,0.5797429,1,44.0789543793284
"767","pav",124,"control","second",7,"CSplus",4,0,0,100
"768","pav",124,"control","second",8,"CSminus",4,0,0,44.0789543793284
"769","pav",124,"control","second",9,"CSplus",5,0.7798477,1,100
"770","pav",124,"control","second",10,"CSminus",5,0.3565494,1,44.0789543793284
"771","pav",124,"control","second",11,"CSminus",6,0.8014735,1,44.0789543793284
"772","pav",124,"control","second",12,"CSplus",6,0.5493037,1,100
"773","pav",124,"control","second",13,"CSminus",7,0.392724,1,44.0789543793284
"774","pav",124,"control","second",14,"CSplus",7,0,0,100
"775","pav",124,"control","second",15,"CSplus",8,0.9851407,1,100
"776","pav",124,"control","second",16,"CSminus",8,0.8422827,1,44.0789543793284
"777","pav",124,"control","second",17,"CSplus",9,0.6923528,1,100
"778","pav",124,"control","second",18,"CSminus",9,0.5389363,1,44.0789543793284
"779","pav",124,"control","second",19,"CSminus",10,0.3913192,1,44.0789543793284
"780","pav",124,"control","second",20,"CSplus",10,0,0,100
"781","pav",124,"control","second",21,"CSminus",11,0.5999392,1,44.0789543793284
"782","pav",124,"control","second",22,"CSplus",11,0.4142129,1,100
"783","pav",124,"control","second",23,"CSplus",12,0.3243676,1,100
"784","pav",124,"control","second",24,"CSminus",12,0.4963996,1,44.0789543793284
"785","pav",124,"control","second",25,"CSplus",13,0.6794821,1,100
"786","pav",124,"control","second",26,"CSminus",13,0.4601657,1,44.0789543793284
"787","pav",124,"control","second",27,"CSminus",14,0,0,44.0789543793284
"788","pav",124,"control","second",28,"CSplus",14,0.7806932,1,100
"789","pav",124,"control","second",29,"CSplus",15,0.5583974,1,100
"790","pav",124,"control","second",30,"CSminus",15,0,0,44.0789543793284
"791","pav",124,"control","second",31,"CSplus",16,0.6515735,1,100
"792","pav",124,"control","second",32,"CSminus",16,0.8765768,1,44.0789543793284
"793","pav",124,"control","second",33,"CSplus",17,0.3208845,1,100
"794","pav",124,"control","second",34,"CSminus",17,0,0,44.0789543793284
"795","pav",124,"control","second",35,"CSplus",18,0.3617979,1,100
"796","pav",124,"control","second",36,"CSminus",18,0.7963726,1,44.0789543793284
"797","pav",124,"control","second",37,"CSminus",19,0.6824236,1,44.0789543793284
"798","pav",124,"control","second",38,"CSplus",19,0.3518398,1,100
"799","pav",124,"control","second",39,"CSplus",20,0,0,100
"800","pav",124,"control","second",40,"CSminus",20,0,0,44.0789543793284
"801","pav",125,"control","second",1,"CSminus",1,0.3861731,1,50.0000011973684
"802","pav",125,"control","second",2,"CSplus",1,0.4094371,1,44.0789543793284
"803","pav",125,"control","second",3,"CSplus",2,0.3515691,1,44.0789543793284
"804","pav",125,"control","second",4,"CSminus",2,0.4213847,1,50.0000011973684
"805","pav",125,"control","second",5,"CSplus",3,0.4303119,1,44.0789543793284
"806","pav",125,"control","second",6,"CSminus",3,0.4685839,1,50.0000011973684
"807","pav",125,"control","second",7,"CSplus",4,0.4000861,1,44.0789543793284
"808","pav",125,"control","second",8,"CSminus",4,0.3992407,1,50.0000011973684
"809","pav",125,"control","second",9,"CSplus",5,0.4505892,1,44.0789543793284
"810","pav",125,"control","second",10,"CSminus",5,0.6804881,1,50.0000011973684
"811","pav",125,"control","second",11,"CSminus",6,0.5744054,1,50.0000011973684
"812","pav",125,"control","second",12,"CSplus",6,0.6047951,1,44.0789543793284
"813","pav",125,"control","second",13,"CSminus",7,0.8497818,1,50.0000011973684
"814","pav",125,"control","second",14,"CSplus",7,0.4089335,1,44.0789543793284
"815","pav",125,"control","second",15,"CSplus",8,0.4573993,1,44.0789543793284
"816","pav",125,"control","second",16,"CSminus",8,0.6160075,1,50.0000011973684
"817","pav",125,"control","second",17,"CSminus",9,0.8847217,1,50.0000011973684
"818","pav",125,"control","second",18,"CSplus",9,0.3958672,1,44.0789543793284
"819","pav",125,"control","second",19,"CSplus",10,0.5977845,1,44.0789543793284
"820","pav",125,"control","second",20,"CSminus",10,0.4056226,1,50.0000011973684
"821","pav",125,"control","second",21,"CSminus",11,0.8448303,1,50.0000011973684
"822","pav",125,"control","second",22,"CSplus",11,0.5468921,1,44.0789543793284
"823","pav",125,"control","second",23,"CSplus",12,0.5337803,1,44.0789543793284
"824","pav",125,"control","second",24,"CSminus",12,0.5859723,1,50.0000011973684
"825","pav",125,"control","second",25,"CSminus",13,0.4031649,1,50.0000011973684
"826","pav",125,"control","second",26,"CSplus",13,0.9715774,1,44.0789543793284
"827","pav",125,"control","second",27,"CSminus",14,0.5028046,1,50.0000011973684
"828","pav",125,"control","second",28,"CSplus",14,0.4823044,1,44.0789543793284
"829","pav",125,"control","second",29,"CSplus",15,0.7197508,1,44.0789543793284
"830","pav",125,"control","second",30,"CSminus",15,0.3988613,1,50.0000011973684
"831","pav",125,"control","second",31,"CSplus",16,0.8847165,1,44.0789543793284
"832","pav",125,"control","second",32,"CSminus",16,0,0,50.0000011973684
"833","pav",125,"control","second",33,"CSminus",17,0.451756,1,50.0000011973684
"834","pav",125,"control","second",34,"CSplus",17,0.8405537,1,44.0789543793284
"835","pav",125,"control","second",35,"CSplus",18,0.5134289,1,44.0789543793284
"836","pav",125,"control","second",36,"CSminus",18,0.530605,1,50.0000011973684
"837","pav",125,"control","second",37,"CSminus",19,0.6809964,1,50.0000011973684
"838","pav",125,"control","second",38,"CSplus",19,0,0,44.0789543793284
"839","pav",125,"control","second",39,"CSminus",20,0.556947,1,50.0000011973684
"840","pav",125,"control","second",40,"CSplus",20,0.9753393,1,44.0789543793284
"841","pav",126,"control","second",1,"CSminus",1,0.3022196,1,43.7500013470395
"842","pav",126,"control","second",2,"CSplus",1,0.3359751,1,59.5394715021641
"843","pav",126,"control","second",3,"CSminus",2,0.3034464,1,43.7500013470395
"844","pav",126,"control","second",4,"CSplus",2,0.4339621,1,59.5394715021641
"845","pav",126,"control","second",5,"CSplus",3,0.3948898,1,59.5394715021641
"846","pav",126,"control","second",6,"CSminus",3,0.3449769,1,43.7500013470395
"847","pav",126,"control","second",7,"CSplus",4,0.2867316,1,59.5394715021641
"848","pav",126,"control","second",8,"CSminus",4,0.2883529,1,43.7500013470395
"849","pav",126,"control","second",9,"CSminus",5,0.2961247,1,43.7500013470395
"850","pav",126,"control","second",10,"CSplus",5,0.4054272,1,59.5394715021641
"851","pav",126,"control","second",11,"CSplus",6,0.297346,1,59.5394715021641
"852","pav",126,"control","second",12,"CSminus",6,0.372122,1,43.7500013470395
"853","pav",126,"control","second",13,"CSplus",7,0.3584289,1,59.5394715021641
"854","pav",126,"control","second",14,"CSminus",7,0.6086261,1,43.7500013470395
"855","pav",126,"control","second",15,"CSplus",8,0.5019077,1,59.5394715021641
"856","pav",126,"control","second",16,"CSminus",8,0.4896871,1,43.7500013470395
"857","pav",126,"control","second",17,"CSminus",9,0.2786308,1,43.7500013470395
"858","pav",126,"control","second",18,"CSplus",9,0.554052,1,59.5394715021641
"859","pav",126,"control","second",19,"CSplus",10,0.3131102,1,59.5394715021641
"860","pav",126,"control","second",20,"CSminus",10,0.4121681,1,43.7500013470395
"861","pav",126,"control","second",21,"CSminus",11,0.4731621,1,43.7500013470395
"862","pav",126,"control","second",22,"CSplus",11,0.3413731,1,59.5394715021641
"863","pav",126,"control","second",23,"CSplus",12,0.2893084,1,59.5394715021641
"864","pav",126,"control","second",24,"CSminus",12,0.458382,1,43.7500013470395
"865","pav",126,"control","second",25,"CSplus",13,0.3453185,1,59.5394715021641
"866","pav",126,"control","second",26,"CSminus",13,0.3091539,1,43.7500013470395
"867","pav",126,"control","second",27,"CSplus",14,0.4652598,1,59.5394715021641
"868","pav",126,"control","second",28,"CSminus",14,0.3106534,1,43.7500013470395
"869","pav",126,"control","second",29,"CSplus",15,0.3348461,1,59.5394715021641
"870","pav",126,"control","second",30,"CSminus",15,0.7583151,1,43.7500013470395
"871","pav",126,"control","second",31,"CSminus",16,0.2811999,1,43.7500013470395
"872","pav",126,"control","second",32,"CSplus",16,0.3838995,1,59.5394715021641
"873","pav",126,"control","second",33,"CSminus",17,0.3072635,1,43.7500013470395
"874","pav",126,"control","second",34,"CSplus",17,0.310426,1,59.5394715021641
"875","pav",126,"control","second",35,"CSplus",18,0.5051863,1,59.5394715021641
"876","pav",126,"control","second",36,"CSminus",18,0.4859893,1,43.7500013470395
"877","pav",126,"control","second",37,"CSplus",19,0.578842,1,59.5394715021641
"878","pav",126,"control","second",38,"CSminus",19,0.4208642,1,43.7500013470395
"879","pav",126,"control","second",39,"CSminus",20,0.3501651,1,43.7500013470395
"880","pav",126,"control","second",40,"CSplus",20,0.3519516,1,59.5394715021641
"881","pav",127,"control","second",1,"CSplus",1,0.2899882,1,72.3684242351109
"882","pav",127,"control","second",2,"CSminus",1,0.3810259,1,37.828942555315
"883","pav",127,"control","second",3,"CSplus",2,0.3059069,1,72.3684242351109
"884","pav",127,"control","second",4,"CSminus",2,0.3543761,1,37.828942555315
"885","pav",127,"control","second",5,"CSminus",3,0.3149932,1,37.828942555315
"886","pav",127,"control","second",6,"CSplus",3,0.3120261,1,72.3684242351109
"887","pav",127,"control","second",7,"CSminus",4,0.4336275,1,37.828942555315
"888","pav",127,"control","second",8,"CSplus",4,0.3846008,1,72.3684242351109
"889","pav",127,"control","second",9,"CSminus",5,0.8176388,1,37.828942555315
"890","pav",127,"control","second",10,"CSplus",5,0.3110245,1,72.3684242351109
"891","pav",127,"control","second",11,"CSplus",6,0.3929774,1,72.3684242351109
"892","pav",127,"control","second",12,"CSminus",6,0.2611937,1,37.828942555315
"893","pav",127,"control","second",13,"CSplus",7,0.2973596,1,72.3684242351109
"894","pav",127,"control","second",14,"CSminus",7,0.390562,1,37.828942555315
"895","pav",127,"control","second",15,"CSplus",8,0.3159885,1,72.3684242351109
"896","pav",127,"control","second",16,"CSminus",8,0.2904712,1,37.828942555315
"897","pav",127,"control","second",17,"CSminus",9,0.2597238,1,37.828942555315
"898","pav",127,"control","second",18,"CSplus",9,0.2537244,1,72.3684242351109
"899","pav",127,"control","second",19,"CSminus",10,0.831346,1,37.828942555315
"900","pav",127,"control","second",20,"CSplus",10,0.4416465,1,72.3684242351109
"901","pav",127,"control","second",21,"CSminus",11,0.3206003,1,37.828942555315
"902","pav",127,"control","second",22,"CSplus",11,0.3167024,1,72.3684242351109
"903","pav",127,"control","second",23,"CSminus",12,0.3932266,1,37.828942555315
"904","pav",127,"control","second",24,"CSplus",12,0.2864528,1,72.3684242351109
"905","pav",127,"control","second",25,"CSplus",13,0.2707522,1,72.3684242351109
"906","pav",127,"control","second",26,"CSminus",13,0.4863629,1,37.828942555315
"907","pav",127,"control","second",27,"CSminus",14,0.2879945,1,37.828942555315
"908","pav",127,"control","second",28,"CSplus",14,0.2426684,1,72.3684242351109
"909","pav",127,"control","second",29,"CSplus",15,0.7853522,1,72.3684242351109
"910","pav",127,"control","second",30,"CSminus",15,0.3683547,1,37.828942555315
"911","pav",127,"control","second",31,"CSminus",16,0.3440492,1,37.828942555315
"912","pav",127,"control","second",32,"CSplus",16,0.3033628,1,72.3684242351109
"913","pav",127,"control","second",33,"CSminus",17,0.3147011,1,37.828942555315
"914","pav",127,"control","second",34,"CSplus",17,0.2996638,1,72.3684242351109
"915","pav",127,"control","second",35,"CSminus",18,0.3314074,1,37.828942555315
"916","pav",127,"control","second",36,"CSplus",18,0.2625632,1,72.3684242351109
"917","pav",127,"control","second",37,"CSminus",19,0.3323744,1,37.828942555315
"918","pav",127,"control","second",38,"CSplus",19,0.4733334,1,72.3684242351109
"919","pav",127,"control","second",39,"CSplus",20,0.2996481,1,72.3684242351109
"920","pav",127,"control","second",40,"CSminus",20,0.3587343,1,37.828942555315
"921","pav",128,"control","second",1,"CSplus",1,0.2412891,1,83.5526357539821
"922","pav",128,"control","second",2,"CSminus",1,0.3772412,1,50.0000011973684
"923","pav",128,"control","second",3,"CSminus",2,0.3424084,1,50.0000011973684
"924","pav",128,"control","second",4,"CSplus",2,0.3092037,1,83.5526357539821
"925","pav",128,"control","second",5,"CSplus",3,0.3647473,1,83.5526357539821
"926","pav",128,"control","second",6,"CSminus",3,0.3529664,1,50.0000011973684
"927","pav",128,"control","second",7,"CSminus",4,0.5760845,1,50.0000011973684
"928","pav",128,"control","second",8,"CSplus",4,0.474148,1,83.5526357539821
"929","pav",128,"control","second",9,"CSplus",5,0.2924261,1,83.5526357539821
"930","pav",128,"control","second",10,"CSminus",5,0.5929844,1,50.0000011973684
"931","pav",128,"control","second",11,"CSplus",6,0.4586574,1,83.5526357539821
"932","pav",128,"control","second",12,"CSminus",6,0.3406505,1,50.0000011973684
"933","pav",128,"control","second",13,"CSminus",7,0.4668888,1,50.0000011973684
"934","pav",128,"control","second",14,"CSplus",7,0.3099664,1,83.5526357539821
"935","pav",128,"control","second",15,"CSminus",8,0.4402001,1,50.0000011973684
"936","pav",128,"control","second",16,"CSplus",8,0.248293,1,83.5526357539821
"937","pav",128,"control","second",17,"CSminus",9,0.3599712,1,50.0000011973684
"938","pav",128,"control","second",18,"CSplus",9,0.4557253,1,83.5526357539821
"939","pav",128,"control","second",19,"CSplus",10,0.2706193,1,83.5526357539821
"940","pav",128,"control","second",20,"CSminus",10,0.3320878,1,50.0000011973684
"941","pav",128,"control","second",21,"CSminus",11,0.3498447,1,50.0000011973684
"942","pav",128,"control","second",22,"CSplus",11,0.3409327,1,83.5526357539821
"943","pav",128,"control","second",23,"CSplus",12,0.3559312,1,83.5526357539821
"944","pav",128,"control","second",24,"CSminus",12,0.3500688,1,50.0000011973684
"945","pav",128,"control","second",25,"CSplus",13,0.4328393,1,83.5526357539821
"946","pav",128,"control","second",26,"CSminus",13,0.3967916,1,50.0000011973684
"947","pav",128,"control","second",27,"CSplus",14,0.0001468965,1,83.5526357539821
"948","pav",128,"control","second",28,"CSminus",14,0.3170101,1,50.0000011973684
"949","pav",128,"control","second",29,"CSplus",15,0.3716148,1,83.5526357539821
"950","pav",128,"control","second",30,"CSminus",15,0.4086324,1,50.0000011973684
"951","pav",128,"control","second",31,"CSplus",16,0.5633187,1,83.5526357539821
"952","pav",128,"control","second",32,"CSminus",16,0.4241477,1,50.0000011973684
"953","pav",128,"control","second",33,"CSplus",17,0.5132805,1,83.5526357539821
"954","pav",128,"control","second",34,"CSminus",17,0.5348983,1,50.0000011973684
"955","pav",128,"control","second",35,"CSplus",18,0.4525596,1,83.5526357539821
"956","pav",128,"control","second",36,"CSminus",18,0.6923413,1,50.0000011973684
"957","pav",128,"control","second",37,"CSplus",19,0.333635,1,83.5526357539821
"958","pav",128,"control","second",38,"CSminus",19,0.3772389,1,50.0000011973684
"959","pav",128,"control","second",39,"CSminus",20,0.7198654,1,50.0000011973684
"960","pav",128,"control","second",40,"CSplus",20,0.000136633,1,83.5526357539821
"961","pav",129,"control","second",1,"CSplus",1,0.4006428,1,61.1842127162396
"962","pav",129,"control","second",2,"CSminus",1,0.5211376,1,30.2631545231994
"963","pav",129,"control","second",3,"CSminus",2,0.5007605,1,30.2631545231994
"964","pav",129,"control","second",4,"CSplus",2,0.4117859,1,61.1842127162396
"965","pav",129,"control","second",5,"CSplus",3,0.3922635,1,61.1842127162396
"966","pav",129,"control","second",6,"CSminus",3,0.3666575,1,30.2631545231994
"967","pav",129,"control","second",7,"CSminus",4,0.4189027,1,30.2631545231994
"968","pav",129,"control","second",8,"CSplus",4,0.3641345,1,61.1842127162396
"969","pav",129,"control","second",9,"CSminus",5,0.3396212,1,30.2631545231994
"970","pav",129,"control","second",10,"CSplus",5,0.2996364,1,61.1842127162396
"971","pav",129,"control","second",11,"CSplus",6,0.5615778,1,61.1842127162396
"972","pav",129,"control","second",12,"CSminus",6,0.4583577,1,30.2631545231994
"973","pav",129,"control","second",13,"CSplus",7,0.6647829,1,61.1842127162396
"974","pav",129,"control","second",14,"CSminus",7,0.4072869,1,30.2631545231994
"975","pav",129,"control","second",15,"CSplus",8,0.3671225,1,61.1842127162396
"976","pav",129,"control","second",16,"CSminus",8,0.6793065,1,30.2631545231994
"977","pav",129,"control","second",17,"CSminus",9,0.3704973,1,30.2631545231994
"978","pav",129,"control","second",18,"CSplus",9,0.46362,1,61.1842127162396
"979","pav",129,"control","second",19,"CSplus",10,0.8127648,1,61.1842127162396
"980","pav",129,"control","second",20,"CSminus",10,0.3043429,1,30.2631545231994
"981","pav",129,"control","second",21,"CSminus",11,0.3181956,1,30.2631545231994
"982","pav",129,"control","second",22,"CSplus",11,0.4597676,1,61.1842127162396
"983","pav",129,"control","second",23,"CSplus",12,0.388933,1,61.1842127162396
"984","pav",129,"control","second",24,"CSminus",12,0.8435916,1,30.2631545231994
"985","pav",129,"control","second",25,"CSminus",13,0.7797471,1,30.2631545231994
"986","pav",129,"control","second",26,"CSplus",13,0.4334838,1,61.1842127162396
"987","pav",129,"control","second",27,"CSminus",14,0.5962287,1,30.2631545231994
"988","pav",129,"control","second",28,"CSplus",14,0.3960107,1,61.1842127162396
"989","pav",129,"control","second",29,"CSplus",15,0.590976,1,61.1842127162396
"990","pav",129,"control","second",30,"CSminus",15,0.5031917,1,30.2631545231994
"991","pav",129,"control","second",31,"CSminus",16,0,0,30.2631545231994
"992","pav",129,"control","second",32,"CSplus",16,0.4685173,1,61.1842127162396
"993","pav",129,"control","second",33,"CSplus",17,0.3507906,1,61.1842127162396
"994","pav",129,"control","second",34,"CSminus",17,0.8684023,1,30.2631545231994
"995","pav",129,"control","second",35,"CSminus",18,0.3267663,1,30.2631545231994
"996","pav",129,"control","second",36,"CSplus",18,0.295556,1,61.1842127162396
"997","pav",129,"control","second",37,"CSplus",19,0.4634558,1,61.1842127162396
"998","pav",129,"control","second",38,"CSminus",19,0.3268347,1,30.2631545231994
"999","pav",129,"control","second",39,"CSplus",20,0.3723804,1,61.1842127162396
"1000","pav",129,"control","second",40,"CSminus",20,0.5524685,1,30.2631545231994
"1001","pav",130,"control","second",1,"CSminus",1,0.4533815,1,74.0131654491864
"1002","pav",130,"control","second",2,"CSplus",1,0.5429612,1,98.3552707596089
"1003","pav",130,"control","second",3,"CSplus",2,0.5167983,1,98.3552707596089
"1004","pav",130,"control","second",4,"CSminus",2,0,0,74.0131654491864
"1005","pav",130,"control","second",5,"CSplus",3,0.6475046,1,98.3552707596089
"1006","pav",130,"control","second",6,"CSminus",3,0.6707296,1,74.0131654491864
"1007","pav",130,"control","second",7,"CSplus",4,0.9518139,1,98.3552707596089
"1008","pav",130,"control","second",8,"CSminus",4,0.7384942,1,74.0131654491864
"1009","pav",130,"control","second",9,"CSplus",5,0.384622,1,98.3552707596089
"1010","pav",130,"control","second",10,"CSminus",5,0,0,74.0131654491864
"1011","pav",130,"control","second",11,"CSminus",6,0.7586847,1,74.0131654491864
"1012","pav",130,"control","second",12,"CSplus",6,0.6130918,1,98.3552707596089
"1013","pav",130,"control","second",13,"CSplus",7,0.8254455,1,98.3552707596089
"1014","pav",130,"control","second",14,"CSminus",7,0.6867259,1,74.0131654491864
"1015","pav",130,"control","second",15,"CSminus",8,0.5466432,1,74.0131654491864
"1016","pav",130,"control","second",16,"CSplus",8,0.9416861,1,98.3552707596089
"1017","pav",130,"control","second",17,"CSplus",9,0.8432,1,98.3552707596089
"1018","pav",130,"control","second",18,"CSminus",9,0.8239393,1,74.0131654491864
"1019","pav",130,"control","second",19,"CSminus",10,0,0,74.0131654491864
"1020","pav",130,"control","second",20,"CSplus",10,0.7928541,1,98.3552707596089
"1021","pav",130,"control","second",21,"CSplus",11,0,0,98.3552707596089
"1022","pav",130,"control","second",22,"CSminus",11,0,0,74.0131654491864
"1023","pav",130,"control","second",23,"CSminus",12,0,0,74.0131654491864
"1024","pav",130,"control","second",24,"CSplus",12,0.6526701,1,98.3552707596089
"1025","pav",130,"control","second",25,"CSminus",13,0,0,74.0131654491864
"1026","pav",130,"control","second",26,"CSplus",13,0.7841593,1,98.3552707596089
"1027","pav",130,"control","second",27,"CSminus",14,0,0,74.0131654491864
"1028","pav",130,"control","second",28,"CSplus",14,0.6021073,1,98.3552707596089
"1029","pav",130,"control","second",29,"CSminus",15,0.8648637,1,74.0131654491864
"1030","pav",130,"control","second",30,"CSplus",15,0,0,98.3552707596089
"1031","pav",130,"control","second",31,"CSplus",16,0,0,98.3552707596089
"1032","pav",130,"control","second",32,"CSminus",16,0,0,74.0131654491864
"1033","pav",130,"control","second",33,"CSminus",17,0.7622346,1,74.0131654491864
"1034","pav",130,"control","second",34,"CSplus",17,0.7445321,1,98.3552707596089
"1035","pav",130,"control","second",35,"CSminus",18,0.7447444,1,74.0131654491864
"1036","pav",130,"control","second",36,"CSplus",18,0.7961503,1,98.3552707596089
"1037","pav",130,"control","second",37,"CSminus",19,0.9807897,1,74.0131654491864
"1038","pav",130,"control","second",38,"CSplus",19,0.8804122,1,98.3552707596089
"1039","pav",130,"control","second",39,"CSplus",20,0.7809523,1,98.3552707596089
"1040","pav",130,"control","second",40,"CSminus",20,0.9955703,1,74.0131654491864
"1041","pav",131,"control","second",1,"CSminus",1,0.2828209,1,62.8289539303152
"1042","pav",131,"control","second",2,"CSplus",1,0.3606949,1,85.8552590852665
"1043","pav",131,"control","second",3,"CSminus",2,0.4023248,1,62.8289539303152
"1044","pav",131,"control","second",4,"CSplus",2,0.4749303,1,85.8552590852665
"1045","pav",131,"control","second",5,"CSminus",3,0.4199274,1,62.8289539303152
"1046","pav",131,"control","second",6,"CSplus",3,0.4010412,1,85.8552590852665
"1047","pav",131,"control","second",7,"CSplus",4,0.4115414,1,85.8552590852665
"1048","pav",131,"control","second",8,"CSminus",4,0.3399814,1,62.8289539303152
"1049","pav",131,"control","second",9,"CSminus",5,0.4882611,1,62.8289539303152
"1050","pav",131,"control","second",10,"CSplus",5,0.5019443,1,85.8552590852665
"1051","pav",131,"control","second",11,"CSminus",6,0.3639914,1,62.8289539303152
"1052","pav",131,"control","second",12,"CSplus",6,0.3208435,1,85.8552590852665
"1053","pav",131,"control","second",13,"CSminus",7,0.3581553,1,62.8289539303152
"1054","pav",131,"control","second",14,"CSplus",7,0.3866193,1,85.8552590852665
"1055","pav",131,"control","second",15,"CSplus",8,0.4130652,1,85.8552590852665
"1056","pav",131,"control","second",16,"CSminus",8,0.373269,1,62.8289539303152
"1057","pav",131,"control","second",17,"CSminus",9,0.494737,1,62.8289539303152
"1058","pav",131,"control","second",18,"CSplus",9,0.3756601,1,85.8552590852665
"1059","pav",131,"control","second",19,"CSplus",10,0.4580446,1,85.8552590852665
"1060","pav",131,"control","second",20,"CSminus",10,0.3817595,1,62.8289539303152
"1061","pav",131,"control","second",21,"CSminus",11,0.3429325,1,62.8289539303152
"1062","pav",131,"control","second",22,"CSplus",11,0.6255315,1,85.8552590852665
"1063","pav",131,"control","second",23,"CSplus",12,0.3459805,1,85.8552590852665
"1064","pav",131,"control","second",24,"CSminus",12,0.5508719,1,62.8289539303152
"1065","pav",131,"control","second",25,"CSminus",13,0.3859246,1,62.8289539303152
"1066","pav",131,"control","second",26,"CSplus",13,0.375824,1,85.8552590852665
"1067","pav",131,"control","second",27,"CSminus",14,0.3901111,1,62.8289539303152
"1068","pav",131,"control","second",28,"CSplus",14,0.3123526,1,85.8552590852665
"1069","pav",131,"control","second",29,"CSminus",15,0.5875442,1,62.8289539303152
"1070","pav",131,"control","second",30,"CSplus",15,0.336639,1,85.8552590852665
"1071","pav",131,"control","second",31,"CSplus",16,0.3925853,1,85.8552590852665
"1072","pav",131,"control","second",32,"CSminus",16,0.338846,1,62.8289539303152
"1073","pav",131,"control","second",33,"CSminus",17,0.4120713,1,62.8289539303152
"1074","pav",131,"control","second",34,"CSplus",17,0.4471642,1,85.8552590852665
"1075","pav",131,"control","second",35,"CSplus",18,0.4746134,1,85.8552590852665
"1076","pav",131,"control","second",36,"CSminus",18,0.4128606,1,62.8289539303152
"1077","pav",131,"control","second",37,"CSminus",19,0.347121,1,62.8289539303152
"1078","pav",131,"control","second",38,"CSplus",19,0.4704352,1,85.8552590852665
"1079","pav",131,"control","second",39,"CSplus",20,0.3217191,1,85.8552590852665
"1080","pav",131,"control","second",40,"CSminus",20,0.3436205,1,62.8289539303152
"1081","pav",132,"control","second",1,"CSminus",1,0.6268824,1,50.0000011973684
"1082","pav",132,"control","second",2,"CSplus",1,0.4676224,1,56.9078951385907
"1083","pav",132,"control","second",3,"CSminus",2,0.4098354,1,50.0000011973684
"1084","pav",132,"control","second",4,"CSplus",2,0.4752447,1,56.9078951385907
"1085","pav",132,"control","second",5,"CSplus",3,0.4331738,1,56.9078951385907
"1086","pav",132,"control","second",6,"CSminus",3,0.4165343,1,50.0000011973684
"1087","pav",132,"control","second",7,"CSplus",4,0.5085511,1,56.9078951385907
"1088","pav",132,"control","second",8,"CSminus",4,0.4813524,1,50.0000011973684
"1089","pav",132,"control","second",9,"CSminus",5,0.4119892,1,50.0000011973684
"1090","pav",132,"control","second",10,"CSplus",5,0.5306117,1,56.9078951385907
"1091","pav",132,"control","second",11,"CSminus",6,0.3767467,1,50.0000011973684
"1092","pav",132,"control","second",12,"CSplus",6,0.413224,1,56.9078951385907
"1093","pav",132,"control","second",13,"CSminus",7,0.4384999,1,50.0000011973684
"1094","pav",132,"control","second",14,"CSplus",7,0.9485781,1,56.9078951385907
"1095","pav",132,"control","second",15,"CSplus",8,0.4326789,1,56.9078951385907
"1096","pav",132,"control","second",16,"CSminus",8,0.5301418,1,50.0000011973684
"1097","pav",132,"control","second",17,"CSplus",9,0.62909,1,56.9078951385907
"1098","pav",132,"control","second",18,"CSminus",9,0.4689262,0,50.0000011973684
"1099","pav",132,"control","second",19,"CSminus",10,0.4619393,1,50.0000011973684
"1100","pav",132,"control","second",20,"CSplus",10,0.5251765,1,56.9078951385907
"1101","pav",132,"control","second",21,"CSplus",11,0.7651006,1,56.9078951385907
"1102","pav",132,"control","second",22,"CSminus",11,0.7932801,1,50.0000011973684
"1103","pav",132,"control","second",23,"CSminus",12,0.4459355,1,50.0000011973684
"1104","pav",132,"control","second",24,"CSplus",12,0.7639905,1,56.9078951385907
"1105","pav",132,"control","second",25,"CSminus",13,0.4153909,1,50.0000011973684
"1106","pav",132,"control","second",26,"CSplus",13,0.4395202,1,56.9078951385907
"1107","pav",132,"control","second",27,"CSplus",14,0.4004568,1,56.9078951385907
"1108","pav",132,"control","second",28,"CSminus",14,0.538674,1,50.0000011973684
"1109","pav",132,"control","second",29,"CSplus",15,0.4153357,1,56.9078951385907
"1110","pav",132,"control","second",30,"CSminus",15,0.3777449,1,50.0000011973684
"1111","pav",132,"control","second",31,"CSplus",16,0.5257317,1,56.9078951385907
"1112","pav",132,"control","second",32,"CSminus",16,0.5181761,1,50.0000011973684
"1113","pav",132,"control","second",33,"CSplus",17,0.6895574,1,56.9078951385907
"1114","pav",132,"control","second",34,"CSminus",17,0.3564483,1,50.0000011973684
"1115","pav",132,"control","second",35,"CSplus",18,0.4592284,1,56.9078951385907
"1116","pav",132,"control","second",36,"CSminus",18,0.4316355,1,50.0000011973684
"1117","pav",132,"control","second",37,"CSminus",19,0.4270442,1,50.0000011973684
"1118","pav",132,"control","second",38,"CSplus",19,0.596348,1,56.9078951385907
"1119","pav",132,"control","second",39,"CSminus",20,0.4263812,1,50.0000011973684
"1120","pav",132,"control","second",40,"CSplus",20,0.422525,1,56.9078951385907
"1121","pav",133,"control","second",1,"CSplus",1,0.3323766,1,62.5000008980263
"1122","pav",133,"control","second",2,"CSminus",1,0.4903852,1,27.631578159626
"1123","pav",133,"control","second",3,"CSminus",2,0.4611213,1,27.631578159626
"1124","pav",133,"control","second",4,"CSplus",2,0.4769956,1,62.5000008980263
"1125","pav",133,"control","second",5,"CSminus",3,0.609828,1,27.631578159626
"1126","pav",133,"control","second",6,"CSplus",3,0.5208699,1,62.5000008980263
"1127","pav",133,"control","second",7,"CSplus",4,0.7574343,1,62.5000008980263
"1128","pav",133,"control","second",8,"CSminus",4,0.3654974,1,27.631578159626
"1129","pav",133,"control","second",9,"CSplus",5,0.5405058,1,62.5000008980263
"1130","pav",133,"control","second",10,"CSminus",5,0.7866525,1,27.631578159626
"1131","pav",133,"control","second",11,"CSminus",6,0.5594518,1,27.631578159626
"1132","pav",133,"control","second",12,"CSplus",6,0.3026581,1,62.5000008980263
"1133","pav",133,"control","second",13,"CSminus",7,0.6000684,1,27.631578159626
"1134","pav",133,"control","second",14,"CSplus",7,0.4981123,1,62.5000008980263
"1135","pav",133,"control","second",15,"CSminus",8,0.8376316,1,27.631578159626
"1136","pav",133,"control","second",16,"CSplus",8,0.3787189,1,62.5000008980263
"1137","pav",133,"control","second",17,"CSminus",9,0.6426816,1,27.631578159626
"1138","pav",133,"control","second",18,"CSplus",9,0.4995547,1,62.5000008980263
"1139","pav",133,"control","second",19,"CSplus",10,0.5044183,1,62.5000008980263
"1140","pav",133,"control","second",20,"CSminus",10,0.6656317,1,27.631578159626
"1141","pav",133,"control","second",21,"CSplus",11,0.4047961,1,62.5000008980263
"1142","pav",133,"control","second",22,"CSminus",11,0.6720697,1,27.631578159626
"1143","pav",133,"control","second",23,"CSminus",12,0.5214043,1,27.631578159626
"1144","pav",133,"control","second",24,"CSplus",12,0.4973416,1,62.5000008980263
"1145","pav",133,"control","second",25,"CSminus",13,0.7697809,1,27.631578159626
"1146","pav",133,"control","second",26,"CSplus",13,0.4747428,1,62.5000008980263
"1147","pav",133,"control","second",27,"CSminus",14,0.3494315,1,27.631578159626
"1148","pav",133,"control","second",28,"CSplus",14,0.4694722,1,62.5000008980263
"1149","pav",133,"control","second",29,"CSminus",15,0.4613413,1,27.631578159626
"1150","pav",133,"control","second",30,"CSplus",15,0.6233386,1,62.5000008980263
"1151","pav",133,"control","second",31,"CSminus",16,0.573548,1,27.631578159626
"1152","pav",133,"control","second",32,"CSplus",16,0.4253538,1,62.5000008980263
"1153","pav",133,"control","second",33,"CSplus",17,0.5082686,1,62.5000008980263
"1154","pav",133,"control","second",34,"CSminus",17,0,0,27.631578159626
"1155","pav",133,"control","second",35,"CSplus",18,0.502735,1,62.5000008980263
"1156","pav",133,"control","second",36,"CSminus",18,0.4637862,1,27.631578159626
"1157","pav",133,"control","second",37,"CSplus",19,0.3836476,1,62.5000008980263
"1158","pav",133,"control","second",38,"CSminus",19,0.5390372,1,27.631578159626
"1159","pav",133,"control","second",39,"CSminus",20,0.5444656,1,27.631578159626
"1160","pav",133,"control","second",40,"CSplus",20,0.5397877,1,62.5000008980263
"1161","pav",201,"obese","second",1,"CSminus",1,0.4917628,1,50.0000011973684
"1162","pav",201,"obese","second",2,"CSplus",1,0.5374012,1,50.0000011973684
"1163","pav",201,"obese","second",3,"CSminus",2,0.491842,1,50.0000011973684
"1164","pav",201,"obese","second",4,"CSplus",2,0.5923769,1,50.0000011973684
"1165","pav",201,"obese","second",5,"CSplus",3,0.7905769,1,50.0000011973684
"1166","pav",201,"obese","second",6,"CSminus",3,0.565781,1,50.0000011973684
"1167","pav",201,"obese","second",7,"CSminus",4,0.6882545,1,50.0000011973684
"1168","pav",201,"obese","second",8,"CSplus",4,0,0,50.0000011973684
"1169","pav",201,"obese","second",9,"CSminus",5,0.4774279,1,50.0000011973684
"1170","pav",201,"obese","second",10,"CSplus",5,0.616405,1,50.0000011973684
"1171","pav",201,"obese","second",11,"CSminus",6,0.3761023,1,50.0000011973684
"1172","pav",201,"obese","second",12,"CSplus",6,0,0,50.0000011973684
"1173","pav",201,"obese","second",13,"CSminus",7,0,0,50.0000011973684
"1174","pav",201,"obese","second",14,"CSplus",7,0,0,50.0000011973684
"1175","pav",201,"obese","second",15,"CSplus",8,0.911771,1,50.0000011973684
"1176","pav",201,"obese","second",16,"CSminus",8,0.5811586,1,50.0000011973684
"1177","pav",201,"obese","second",17,"CSplus",9,0.4780722,1,50.0000011973684
"1178","pav",201,"obese","second",18,"CSminus",9,0.4773259,1,50.0000011973684
"1179","pav",201,"obese","second",19,"CSplus",10,0.3352732,1,50.0000011973684
"1180","pav",201,"obese","second",20,"CSminus",10,0.5164278,1,50.0000011973684
"1181","pav",201,"obese","second",21,"CSminus",11,0.7495637,1,50.0000011973684
"1182","pav",201,"obese","second",22,"CSplus",11,0.6562504,1,50.0000011973684
"1183","pav",201,"obese","second",23,"CSplus",12,0,0,50.0000011973684
"1184","pav",201,"obese","second",24,"CSminus",12,0,0,50.0000011973684
"1185","pav",201,"obese","second",25,"CSplus",13,0,0,50.0000011973684
"1186","pav",201,"obese","second",26,"CSminus",13,0,0,50.0000011973684
"1187","pav",201,"obese","second",27,"CSplus",14,0,0,50.0000011973684
"1188","pav",201,"obese","second",28,"CSminus",14,0.3422239,1,50.0000011973684
"1189","pav",201,"obese","second",29,"CSminus",15,0,0,50.0000011973684
"1190","pav",201,"obese","second",30,"CSplus",15,0.4998799,1,50.0000011973684
"1191","pav",201,"obese","second",31,"CSminus",16,0.488905,1,50.0000011973684
"1192","pav",201,"obese","second",32,"CSplus",16,0.7447723,1,50.0000011973684
"1193","pav",201,"obese","second",33,"CSplus",17,0.6330466,1,50.0000011973684
"1194","pav",201,"obese","second",34,"CSminus",17,0.928784,1,50.0000011973684
"1195","pav",201,"obese","second",35,"CSminus",18,0.4192298,1,50.0000011973684
"1196","pav",201,"obese","second",36,"CSplus",18,0,0,50.0000011973684
"1197","pav",201,"obese","second",37,"CSplus",19,0.6425471,1,50.0000011973684
"1198","pav",201,"obese","second",38,"CSminus",19,0,0,50.0000011973684
"1199","pav",201,"obese","second",39,"CSplus",20,0,0,50.0000011973684
"1200","pav",201,"obese","second",40,"CSminus",20,0,0,50.0000011973684
"1201","pav",202,"obese","second",1,"CSminus",1,0.4098214,1,73.6842124168975
"1202","pav",202,"obese","second",2,"CSplus",1,0.4958224,1,66.1184243847819
"1203","pav",202,"obese","second",3,"CSplus",2,0.621906,1,66.1184243847819
"1204","pav",202,"obese","second",4,"CSminus",2,0.749007,1,73.6842124168975
"1205","pav",202,"obese","second",5,"CSminus",3,0.6502223,1,73.6842124168975
"1206","pav",202,"obese","second",6,"CSplus",3,0.6885518,1,66.1184243847819
"1207","pav",202,"obese","second",7,"CSminus",4,0.3901528,1,73.6842124168975
"1208","pav",202,"obese","second",8,"CSplus",4,0.5992051,1,66.1184243847819
"1209","pav",202,"obese","second",9,"CSminus",5,0.8288832,1,73.6842124168975
"1210","pav",202,"obese","second",10,"CSplus",5,0.67499,1,66.1184243847819
"1211","pav",202,"obese","second",11,"CSminus",6,0.9183864,1,73.6842124168975
"1212","pav",202,"obese","second",12,"CSplus",6,0.8513015,1,66.1184243847819
"1213","pav",202,"obese","second",13,"CSplus",7,0.8285426,1,66.1184243847819
"1214","pav",202,"obese","second",14,"CSminus",7,0,0,73.6842124168975
"1215","pav",202,"obese","second",15,"CSminus",8,0.5280328,1,73.6842124168975
"1216","pav",202,"obese","second",16,"CSplus",8,0.7256932,1,66.1184243847819
"1217","pav",202,"obese","second",17,"CSplus",9,0.7895813,1,66.1184243847819
"1218","pav",202,"obese","second",18,"CSminus",9,0.4650393,1,73.6842124168975
"1219","pav",202,"obese","second",19,"CSminus",10,0.6429009,1,73.6842124168975
"1220","pav",202,"obese","second",20,"CSplus",10,0.5879694,1,66.1184243847819
"1221","pav",202,"obese","second",21,"CSplus",11,0.661759,1,66.1184243847819
"1222","pav",202,"obese","second",22,"CSminus",11,0.6484211,1,73.6842124168975
"1223","pav",202,"obese","second",23,"CSplus",12,0,0,66.1184243847819
"1224","pav",202,"obese","second",24,"CSminus",12,0.4321126,1,73.6842124168975
"1225","pav",202,"obese","second",25,"CSplus",13,0.444107,1,66.1184243847819
"1226","pav",202,"obese","second",26,"CSminus",13,0.4438061,1,73.6842124168975
"1227","pav",202,"obese","second",27,"CSminus",14,0.4944894,1,73.6842124168975
"1228","pav",202,"obese","second",28,"CSplus",14,0.6505011,1,66.1184243847819
"1229","pav",202,"obese","second",29,"CSminus",15,0.6163146,1,73.6842124168975
"1230","pav",202,"obese","second",30,"CSplus",15,0.8702064,1,66.1184243847819
"1231","pav",202,"obese","second",31,"CSminus",16,0.7418651,1,73.6842124168975
"1232","pav",202,"obese","second",32,"CSplus",16,0.8749347,1,66.1184243847819
"1233","pav",202,"obese","second",33,"CSplus",17,0.4655435,1,66.1184243847819
"1234","pav",202,"obese","second",34,"CSminus",17,0.3844523,1,73.6842124168975
"1235","pav",202,"obese","second",35,"CSplus",18,0.9970181,1,66.1184243847819
"1236","pav",202,"obese","second",36,"CSminus",18,0.7491395,1,73.6842124168975
"1237","pav",202,"obese","second",37,"CSminus",19,0.5808589,1,73.6842124168975
"1238","pav",202,"obese","second",38,"CSplus",19,0.6010892,1,66.1184243847819
"1239","pav",202,"obese","second",39,"CSminus",20,0.568074,1,73.6842124168975
"1240","pav",202,"obese","second",40,"CSplus",20,0.8376605,1,66.1184243847819
"1241","pav",203,"obese","second",1,"CSminus",1,0.4199269,1,31.5789427049861
"1242","pav",203,"obese","second",2,"CSplus",1,0.6072598,1,77.6315769622576
"1243","pav",203,"obese","second",3,"CSplus",2,0.5067143,1,77.6315769622576
"1244","pav",203,"obese","second",4,"CSminus",2,0.5468755,1,31.5789427049861
"1245","pav",203,"obese","second",5,"CSplus",3,0.3359548,1,77.6315769622576
"1246","pav",203,"obese","second",6,"CSminus",3,0.4262322,1,31.5789427049861
"1247","pav",203,"obese","second",7,"CSminus",4,0.4707878,1,31.5789427049861
"1248","pav",203,"obese","second",8,"CSplus",4,0.3547247,1,77.6315769622576
"1249","pav",203,"obese","second",9,"CSplus",5,0.4041007,1,77.6315769622576
"1250","pav",203,"obese","second",10,"CSminus",5,0.5707323,1,31.5789427049861
"1251","pav",203,"obese","second",11,"CSminus",6,0.4428211,1,31.5789427049861
"1252","pav",203,"obese","second",12,"CSplus",6,0.3772812,1,77.6315769622576
"1253","pav",203,"obese","second",13,"CSminus",7,0.8158247,1,31.5789427049861
"1254","pav",203,"obese","second",14,"CSplus",7,0.5720974,1,77.6315769622576
"1255","pav",203,"obese","second",15,"CSminus",8,0.5006376,1,31.5789427049861
"1256","pav",203,"obese","second",16,"CSplus",8,0.3415825,1,77.6315769622576
"1257","pav",203,"obese","second",17,"CSminus",9,0.5651024,1,31.5789427049861
"1258","pav",203,"obese","second",18,"CSplus",9,0.3938759,1,77.6315769622576
"1259","pav",203,"obese","second",19,"CSminus",10,0.6052209,1,31.5789427049861
"1260","pav",203,"obese","second",20,"CSplus",10,0.3876581,1,77.6315769622576
"1261","pav",203,"obese","second",21,"CSplus",11,0.4355862,1,77.6315769622576
"1262","pav",203,"obese","second",22,"CSminus",11,0.8911952,1,31.5789427049861
"1263","pav",203,"obese","second",23,"CSminus",12,0.6530647,1,31.5789427049861
"1264","pav",203,"obese","second",24,"CSplus",12,0.3926972,1,77.6315769622576
"1265","pav",203,"obese","second",25,"CSplus",13,0.3768672,1,77.6315769622576
"1266","pav",203,"obese","second",26,"CSminus",13,0.3831629,1,31.5789427049861
"1267","pav",203,"obese","second",27,"CSplus",14,0.4157492,1,77.6315769622576
"1268","pav",203,"obese","second",28,"CSminus",14,0.4218269,1,31.5789427049861
"1269","pav",203,"obese","second",29,"CSplus",15,0.4748375,1,77.6315769622576
"1270","pav",203,"obese","second",30,"CSminus",15,0.4365363,1,31.5789427049861
"1271","pav",203,"obese","second",31,"CSplus",16,0.5059388,1,77.6315769622576
"1272","pav",203,"obese","second",32,"CSminus",16,0.8869027,1,31.5789427049861
"1273","pav",203,"obese","second",33,"CSplus",17,0.4502677,1,77.6315769622576
"1274","pav",203,"obese","second",34,"CSminus",17,0.5563751,1,31.5789427049861
"1275","pav",203,"obese","second",35,"CSplus",18,0,0,77.6315769622576
"1276","pav",203,"obese","second",36,"CSminus",18,0.4572457,1,31.5789427049861
"1277","pav",203,"obese","second",37,"CSplus",19,0.5370571,1,77.6315769622576
"1278","pav",203,"obese","second",38,"CSminus",19,0.4285297,1,31.5789427049861
"1279","pav",203,"obese","second",39,"CSminus",20,0.4093441,1,31.5789427049861
"1280","pav",203,"obese","second",40,"CSplus",20,0.4140102,1,77.6315769622576
"1281","pav",204,"obese","second",1,"CSminus",1,0.2994447,1,52.9605305932307
"1282","pav",204,"obese","second",2,"CSplus",1,0.2972705,1,61.842106807133
"1283","pav",204,"obese","second",3,"CSplus",2,0.334274,1,61.842106807133
